onset	duration	trial_type	response	response_time	stim_id	stim_version	stim_events	stim_slides	trial_id	run_id	stim_redcross	subsequent_response_type
2.0365	n/a	n/a	n/a	n/a	80100	8	1	0	316	4	n/a	n/a
6.0239	3.5	genericItem	n/a	n/a	10101	1	1	1	317	4	n/a	n/a
10.0231	3.5	genericItem	n/a	n/a	10102	1	1	2	318	4	n/a	n/a
14.0239	3.5	genericItem	n/a	n/a	10103	1	1	3	319	4	n/a	n/a
18.0245	3.5	controlItem	n/a	n/a	10104	1	1	4	320	4	n/a	controlTrue
22.023	3.5	genericItem	1	0.443	10105	1	1	5	321	4	1	n/a
26.0232	3.5	genericItem	n/a	n/a	10106	1	1	6	322	4	n/a	n/a
30.0236	3.5	controlItem	n/a	n/a	10107	1	1	7	323	4	n/a	controlTrue
34.0232	3.5	genericItem	n/a	n/a	10108	1	1	8	324	4	n/a	n/a
38.0235	3.5	genericItem	n/a	n/a	10109	1	1	9	325	4	n/a	n/a
42.0234	3.5	criticalItem	n/a	n/a	10110	1	1	10	326	4	n/a	criticalTrue
46.0237	3.5	genericItem	n/a	n/a	10111	1	1	11	327	4	n/a	n/a
50.0235	3.5	criticalItem	n/a	n/a	10112	1	1	12	328	4	n/a	criticalFalse
54.0236	3.5	genericItem	n/a	n/a	10113	1	1	13	329	4	n/a	n/a
58.0236	3.5	criticalItem	n/a	n/a	10114	1	1	14	330	4	n/a	criticalTrue
62.0232	3.5	genericItem	n/a	n/a	10115	1	1	15	331	4	n/a	n/a
66.0232	3.5	controlItem	n/a	n/a	10116	1	1	16	332	4	n/a	controlTrue
70.0235	3.5	criticalItem	n/a	n/a	10117	1	1	17	333	4	n/a	criticalTrue
74.0232	3.5	controlItem	n/a	n/a	10118	1	1	18	334	4	n/a	controlFoil1
78.0241	3.5	criticalItem	n/a	n/a	10119	1	1	19	335	4	n/a	criticalTrue
82.0228	3.5	genericItem	n/a	n/a	10120	1	1	20	336	4	n/a	n/a
86.0274	3.5	controlItem	n/a	n/a	10121	1	1	21	337	4	n/a	controlFoil2
90.0237	3.5	criticalItem	n/a	n/a	10122	1	1	22	338	4	n/a	criticalTrue
94.0232	3.5	controlItem	n/a	n/a	10123	1	1	23	339	4	n/a	controlFoil1
98.0229	3.5	controlItem	n/a	n/a	10124	1	1	24	340	4	n/a	controlFoil1
102.024	3.5	controlItem	n/a	n/a	10125	1	1	25	341	4	n/a	controlFoil1
106.024	3.5	criticalItem	n/a	n/a	10126	1	1	26	342	4	n/a	criticalFalse
110.025	3.5	genericItem	n/a	n/a	10127	1	1	27	343	4	n/a	n/a
114.023	3.5	criticalItem	n/a	n/a	10128	1	1	28	344	4	n/a	criticalFalse
118.024	3.5	genericItem	n/a	n/a	10129	1	1	29	345	4	n/a	n/a
122.023	3.5	genericItem	n/a	n/a	10130	1	1	30	346	4	n/a	n/a
126.024	3.5	criticalItem	n/a	n/a	10131	1	1	31	347	4	n/a	criticalTrue
130.024	3.5	controlItem	n/a	n/a	10132	1	1	32	348	4	n/a	controlTrue
134.023	3.5	genericItem	n/a	n/a	10133	1	1	33	349	4	n/a	n/a
138.023	3.5	genericItem	n/a	n/a	10134	1	1	34	350	4	n/a	n/a
142.024	3.5	genericItem	n/a	n/a	10135	1	1	35	351	4	n/a	n/a
146.023	3.5	criticalItem	n/a	n/a	10136	1	1	36	352	4	n/a	criticalFalse
150.023	3.5	genericItem	n/a	n/a	10137	1	1	37	353	4	n/a	n/a
154.023	3.5	genericItem	n/a	n/a	10138	1	1	38	354	4	n/a	n/a
158.024	3.5	genericItem	n/a	n/a	10139	1	1	39	355	4	n/a	n/a
162.024	3.5	controlItem	n/a	n/a	10140	1	1	40	356	4	n/a	controlTrue
166.024	3.5	criticalItem	n/a	n/a	10141	1	1	41	357	4	n/a	criticalTrue
170.024	3.5	genericItem	n/a	n/a	10142	1	1	42	358	4	n/a	n/a
174.024	3.5	genericItem	1	0.455	10143	1	1	43	359	4	1	n/a
178.024	3.5	genericItem	n/a	n/a	10144	1	1	44	360	4	n/a	n/a
182.023	3.5	genericItem	n/a	n/a	10145	1	1	45	361	4	n/a	n/a
186.024	3.5	controlItem	n/a	n/a	10146	1	1	46	362	4	n/a	controlTrue
190.024	3.5	genericItem	1	0.526	10147	1	1	47	363	4	1	n/a
194.024	3.5	genericItem	n/a	n/a	10148	1	1	48	364	4	n/a	n/a
198.024	3.5	controlItem	n/a	n/a	10149	1	1	49	365	4	n/a	controlFoil1
202.023	3.5	criticalItem	n/a	n/a	10150	1	1	50	366	4	n/a	criticalFalse
206.024	n/a	n/a	n/a	n/a	90100	9	1	0	367	4	n/a	n/a
210.024	n/a	n/a	n/a	n/a	80400	8	4	0	368	4	n/a	n/a
214.024	3.5	genericItem	n/a	n/a	10401	1	4	1	369	4	n/a	n/a
218.024	3.5	genericItem	n/a	n/a	10402	1	4	2	370	4	n/a	n/a
222.024	3.5	genericItem	n/a	n/a	10403	1	4	3	371	4	n/a	n/a
226.023	3.5	criticalItem	n/a	n/a	20404	2	4	4	372	4	n/a	criticalTrue
230.024	3.5	genericItem	n/a	n/a	10405	1	4	5	373	4	n/a	n/a
234.024	3.5	genericItem	n/a	n/a	10406	1	4	6	374	4	n/a	n/a
238.023	3.5	criticalItem	n/a	n/a	20407	2	4	7	375	4	n/a	criticalTrue
242.024	3.5	genericItem	n/a	n/a	10408	1	4	8	376	4	n/a	n/a
246.024	3.5	controlItem	n/a	n/a	10409	1	4	9	377	4	n/a	controlTrue
250.024	3.5	genericItem	n/a	n/a	10410	1	4	10	378	4	n/a	n/a
254.024	3.5	criticalItem	n/a	n/a	20411	2	4	11	379	4	n/a	criticalTrue
258.024	3.5	controlItem	n/a	n/a	10412	1	4	12	380	4	n/a	controlTrue
262.023	3.5	genericItem	1	0.501	10413	1	4	13	381	4	1	n/a
266.024	3.5	genericItem	n/a	n/a	10414	1	4	14	382	4	n/a	n/a
270.024	3.5	criticalItem	n/a	n/a	20415	2	4	15	383	4	n/a	criticalTrue
274.024	3.5	controlItem	n/a	n/a	10416	1	4	16	384	4	n/a	controlFoil1
278.024	3.5	criticalItem	n/a	n/a	20417	2	4	17	385	4	n/a	criticalFalse
282.024	3.5	genericItem	n/a	n/a	10418	1	4	18	386	4	n/a	n/a
286.024	3.5	criticalItem	n/a	n/a	20419	2	4	19	387	4	n/a	criticalFalse
290.024	3.5	genericItem	n/a	n/a	10420	1	4	20	388	4	n/a	n/a
294.024	3.5	genericItem	n/a	n/a	10421	1	4	21	389	4	n/a	n/a
298.024	3.5	controlItem	n/a	n/a	10422	1	4	22	390	4	n/a	controlFoil2
302.024	3.5	genericItem	n/a	n/a	10423	1	4	23	391	4	n/a	n/a
306.023	3.5	criticalItem	n/a	n/a	20424	2	4	24	392	4	n/a	criticalFalse
310.023	3.5	controlItem	n/a	n/a	10425	1	4	25	393	4	n/a	controlTrue
314.023	3.5	genericItem	1	0.541	10426	1	4	26	394	4	1	n/a
318.025	3.5	genericItem	n/a	n/a	10427	1	4	27	395	4	n/a	n/a
322.023	3.5	genericItem	n/a	n/a	10428	1	4	28	396	4	n/a	n/a
326.024	3.5	criticalItem	n/a	n/a	20429	2	4	29	397	4	n/a	criticalFalse
330.024	3.5	controlItem	n/a	n/a	10430	1	4	30	398	4	n/a	controlTrue
334.024	3.5	genericItem	n/a	n/a	10431	1	4	31	399	4	n/a	n/a
338.025	3.5	genericItem	n/a	n/a	10432	1	4	32	400	4	n/a	n/a
342.024	3.5	genericItem	n/a	n/a	10433	1	4	33	401	4	n/a	n/a
346.024	3.5	genericItem	n/a	n/a	10434	1	4	34	402	4	n/a	n/a
350.025	3.5	genericItem	1	0.693	10435	1	4	35	403	4	1	n/a
354.023	3.5	criticalItem	n/a	n/a	20436	2	4	36	404	4	n/a	criticalFalse
358.024	3.5	genericItem	n/a	n/a	10437	1	4	37	405	4	n/a	n/a
362.023	3.5	criticalItem	n/a	n/a	20438	2	4	38	406	4	n/a	criticalFoil
366.023	3.5	genericItem	n/a	n/a	10439	1	4	39	407	4	n/a	n/a
370.024	3.5	criticalItem	n/a	n/a	20440	2	4	40	408	4	n/a	criticalTrue
374.024	3.5	genericItem	1	0.463	10441	1	4	41	409	4	1	n/a
378.024	3.5	controlItem	n/a	n/a	10442	1	4	42	410	4	n/a	controlTrue
382.023	3.5	controlItem	n/a	n/a	10443	1	4	43	411	4	n/a	controlTrue
386.024	3.5	controlItem	n/a	n/a	10444	1	4	44	412	4	n/a	controlTrue
390.024	3.5	genericItem	n/a	n/a	10445	1	4	45	413	4	n/a	n/a
394.024	3.5	controlItem	n/a	n/a	10446	1	4	46	414	4	n/a	controlTrue
398.023	3.5	genericItem	n/a	n/a	10447	1	4	47	415	4	n/a	n/a
402.024	3.5	controlItem	n/a	n/a	10448	1	4	48	416	4	n/a	controlTrue
406.023	3.5	criticalItem	n/a	n/a	20449	2	4	49	417	4	n/a	criticalFoil
410.024	3.5	controlItem	n/a	n/a	10450	1	4	50	418	4	n/a	controlTrue
414.024	n/a	n/a	n/a	n/a	90400	9	4	0	419	4	n/a	n/a
418.024	n/a	n/a	n/a	n/a	90000	5	0	0	420	4	n/a	n/a
