onset	duration	trial_type	response	response_time	stim_id	stim_version	stim_events	stim_slides	trial_id	run_id	stim_redcross	subsequent_response_type
2.0478	n/a	n/a	n/a	n/a	80500	8	5	0	1	1	n/a	n/a
6.0737	3.5	genericItem	n/a	n/a	10501	1	5	1	2	1	n/a	n/a
10.0558	3.5	genericItem	n/a	n/a	10502	1	5	2	3	1	n/a	n/a
14.0442	3.5	criticalItem	n/a	n/a	10503	1	5	3	4	1	n/a	criticalFalse
18.0418	3.5	genericItem	n/a	n/a	10504	1	5	4	5	1	n/a	n/a
22.0514	3.5	criticalItem	n/a	n/a	10505	1	5	5	6	1	n/a	criticalFalse
26.0393	3.5	genericItem	n/a	n/a	10506	1	5	6	7	1	n/a	n/a
30.0521	3.5	genericItem	n/a	n/a	10507	1	5	7	8	1	1	n/a
34.0459	3.5	genericItem	n/a	n/a	10508	1	5	8	9	1	n/a	n/a
38.0718	3.5	genericItem	n/a	n/a	10509	1	5	9	10	1	n/a	n/a
42.0426	3.5	genericItem	n/a	n/a	10510	1	5	10	11	1	n/a	n/a
46.046	3.5	genericItem	n/a	n/a	10511	1	5	11	12	1	n/a	n/a
50.0401	3.5	genericItem	n/a	n/a	10512	1	5	12	13	1	n/a	n/a
54.0733	3.5	genericItem	n/a	n/a	10513	1	5	13	14	1	n/a	n/a
58.0402	3.5	controlItem	n/a	n/a	10514	1	5	14	15	1	n/a	controlFoil2
62.0394	3.5	controlItem	n/a	n/a	10515	1	5	15	16	1	n/a	controlTrue
66.041	3.5	criticalItem	n/a	n/a	10516	1	5	16	17	1	n/a	criticalTrue
70.0534	3.5	controlItem	n/a	n/a	10517	1	5	17	18	1	n/a	controlFoil1
74.0384	3.5	controlItem	n/a	n/a	10518	1	5	18	19	1	n/a	controlTrue
78.0394	3.5	criticalItem	n/a	n/a	10519	1	5	19	20	1	n/a	criticalFalse
82.0466	3.5	genericItem	n/a	n/a	10520	1	5	20	21	1	n/a	n/a
86.076	3.5	criticalItem	n/a	n/a	10521	1	5	21	22	1	n/a	criticalFalse
90.0577	3.5	controlItem	n/a	n/a	10522	1	5	22	23	1	n/a	controlFoil1
94.0413	3.5	criticalItem	n/a	n/a	10523	1	5	23	24	1	n/a	criticalTrue
98.0413	3.5	controlItem	n/a	n/a	10524	1	5	24	25	1	n/a	controlTrue
102.051	3.5	controlItem	n/a	n/a	10525	1	5	25	26	1	n/a	controlTrue
106.04	3.5	criticalItem	n/a	n/a	10526	1	5	26	27	1	n/a	criticalFalse
110.045	3.5	controlItem	n/a	n/a	10527	1	5	27	28	1	n/a	controlTrue
114.045	3.5	genericItem	n/a	n/a	10528	1	5	28	29	1	n/a	n/a
118.057	3.5	genericItem	n/a	n/a	10529	1	5	29	30	1	n/a	n/a
122.037	3.5	genericItem	n/a	n/a	10530	1	5	30	31	1	1	n/a
126.041	3.5	criticalItem	n/a	n/a	10531	1	5	31	32	1	n/a	criticalTrue
130.044	3.5	controlItem	n/a	n/a	10532	1	5	32	33	1	n/a	controlTrue
134.054	3.5	genericItem	n/a	n/a	10533	1	5	33	34	1	n/a	n/a
138.041	3.5	genericItem	n/a	n/a	10534	1	5	34	35	1	n/a	n/a
142.043	3.5	genericItem	n/a	n/a	10535	1	5	35	36	1	n/a	n/a
146.04	3.5	genericItem	n/a	n/a	10536	1	5	36	37	1	1	n/a
150.073	3.5	genericItem	n/a	n/a	10537	1	5	37	38	1	n/a	n/a
154.039	3.5	genericItem	n/a	n/a	10538	1	5	38	39	1	n/a	n/a
158.044	3.5	criticalItem	n/a	n/a	10539	1	5	39	40	1	n/a	criticalFalse
162.037	3.5	genericItem	n/a	n/a	10540	1	5	40	41	1	n/a	n/a
166.089	3.5	criticalItem	n/a	n/a	10541	1	5	41	42	1	n/a	criticalFoil
170.039	3.5	controlItem	n/a	n/a	10542	1	5	42	43	1	n/a	controlTrue
174.045	3.5	genericItem	n/a	n/a	10543	1	5	43	44	1	n/a	n/a
178.044	3.5	genericItem	n/a	n/a	10544	1	5	44	45	1	n/a	n/a
182.045	3.5	genericItem	n/a	n/a	10545	1	5	45	46	1	n/a	n/a
186.039	3.5	controlItem	n/a	n/a	10546	1	5	46	47	1	n/a	controlTrue
190.039	3.5	criticalItem	n/a	n/a	10547	1	5	47	48	1	n/a	criticalFalse
194.042	3.5	genericItem	1	0.053	10548	1	5	48	49	1	1	n/a
198.06	3.5	controlItem	n/a	n/a	10549	1	5	49	50	1	n/a	controlTrue
202.038	3.5	criticalItem	n/a	n/a	10550	1	5	50	51	1	n/a	criticalFalse
206.042	n/a	n/a	n/a	n/a	90500	9	5	0	52	1	n/a	n/a
210.032	n/a	n/a	n/a	n/a	81000	8	10	0	53	1	n/a	n/a
214.041	3.5	genericItem	1	0.015	11001	1	10	1	54	1	1	n/a
218.042	3.5	genericItem	n/a	n/a	11002	1	10	2	55	1	n/a	n/a
222.056	3.5	criticalItem	n/a	n/a	21003	2	10	3	56	1	n/a	criticalTrue
226.053	3.5	genericItem	1	0.078	11004	1	10	4	57	1	1	n/a
230.049	3.5	criticalItem	n/a	n/a	21005	2	10	5	58	1	n/a	n/a
234.042	3.5	genericItem	n/a	n/a	11006	1	10	6	59	1	n/a	n/a
238.039	3.5	genericItem	1	0.327	11007	1	10	7	60	1	1	n/a
242.054	3.5	criticalItem	n/a	n/a	21008	2	10	8	61	1	n/a	criticalFalse
246.056	3.5	genericItem	n/a	n/a	11009	1	10	9	62	1	n/a	n/a
250.047	3.5	criticalItem	n/a	n/a	21010	2	10	10	63	1	n/a	criticalTrue
254.059	3.5	genericItem	n/a	n/a	11011	1	10	11	64	1	n/a	n/a
258.04	3.5	genericItem	n/a	n/a	11012	1	10	12	65	1	n/a	n/a
262.041	3.5	genericItem	n/a	n/a	11013	1	10	13	66	1	n/a	n/a
266.042	3.5	genericItem	n/a	n/a	11014	1	10	14	67	1	n/a	n/a
270.048	3.5	criticalItem	n/a	n/a	21015	2	10	15	68	1	n/a	criticalTrue
274.048	3.5	genericItem	n/a	n/a	11016	1	10	16	69	1	n/a	n/a
278.037	3.5	controlItem	n/a	n/a	11017	1	10	17	70	1	n/a	controlFoil1
282.048	3.5	criticalItem	n/a	n/a	21018	2	10	18	71	1	n/a	criticalTrue
286.052	3.5	controlItem	n/a	n/a	11019	1	10	19	72	1	n/a	controlTrue
290.079	3.5	criticalItem	n/a	n/a	21020	2	10	20	73	1	n/a	criticalTrue
294.055	3.5	controlItem	n/a	n/a	11021	1	10	21	74	1	n/a	controlTrue
298.046	3.5	genericItem	n/a	n/a	11022	1	10	22	75	1	n/a	n/a
302.052	3.5	criticalItem	n/a	n/a	21023	2	10	23	76	1	n/a	criticalTrue
306.051	3.5	genericItem	n/a	n/a	11024	1	10	24	77	1	n/a	n/a
310.043	3.5	genericItem	n/a	n/a	11025	1	10	25	78	1	n/a	n/a
314.044	3.5	criticalItem	n/a	n/a	21026	2	10	26	79	1	n/a	criticalFalse
318.054	3.5	genericItem	n/a	n/a	11027	1	10	27	80	1	1	n/a
322.05	3.5	controlItem	n/a	n/a	11028	1	10	28	81	1	n/a	controlTrue
326.036	3.5	controlItem	n/a	n/a	11029	1	10	29	82	1	n/a	controlTrue
330.071	3.5	genericItem	n/a	n/a	11030	1	10	30	83	1	n/a	n/a
334.046	3.5	controlItem	n/a	n/a	11031	1	10	31	84	1	n/a	controlFoil1
338.038	3.5	genericItem	n/a	n/a	11032	1	10	32	85	1	n/a	n/a
342.053	3.5	criticalItem	n/a	n/a	21033	2	10	33	86	1	n/a	criticalTrue
346.051	3.5	genericItem	n/a	n/a	11034	1	10	34	87	1	n/a	n/a
350.05	3.5	criticalItem	n/a	n/a	21035	2	10	35	88	1	n/a	criticalFalse
354.042	3.5	genericItem	n/a	n/a	11036	1	10	36	89	1	n/a	n/a
358.042	3.5	controlItem	n/a	n/a	11037	1	10	37	90	1	n/a	controlTrue
362.073	3.5	controlItem	n/a	n/a	11038	1	10	38	91	1	n/a	controlTrue
366.047	3.5	controlItem	n/a	n/a	11039	1	10	39	92	1	n/a	controlFoil1
370.043	3.5	controlItem	n/a	n/a	11040	1	10	40	93	1	n/a	controlFoil1
374.034	3.5	genericItem	n/a	n/a	11041	1	10	41	94	1	n/a	n/a
378.069	3.5	genericItem	n/a	n/a	11042	1	10	42	95	1	n/a	n/a
382.046	3.5	genericItem	n/a	n/a	11043	1	10	43	96	1	n/a	n/a
386.04	3.5	genericItem	n/a	n/a	11044	1	10	44	97	1	n/a	n/a
390.074	3.5	criticalItem	n/a	n/a	21045	2	10	45	98	1	n/a	criticalTrue
394.047	3.5	controlItem	n/a	n/a	11046	1	10	46	99	1	n/a	controlTrue
398.046	3.5	genericItem	n/a	n/a	11047	1	10	47	100	1	n/a	n/a
402.04	3.5	genericItem	n/a	n/a	11048	1	10	48	101	1	n/a	n/a
406.037	3.5	controlItem	n/a	n/a	11049	1	10	49	102	1	n/a	controlTrue
410.065	3.5	genericItem	n/a	n/a	11050	1	10	50	103	1	n/a	n/a
414.036	n/a	n/a	n/a	n/a	91000	9	10	0	104	1	n/a	n/a
418.019	n/a	n/a	n/a	n/a	90000	9	0	0	105	1	n/a	n/a
