onset	duration	trial_type	response	response_time	stim_id	stim_events	stim_slides	trial_id	run_id	stim_type	response_type
2.00852	n/a	n/a	n/a	n/a	80700	7	0	1	1	8	n/a
12.0056	3.5	criticalItem	n/a	n/a	10749	7	49	2	1	1	n/a
15.4891	3.0	criticalItem	n/a	n/a	50749	7	49	3	1	0	n/a
18.4897	3.0	criticalItem	Foil	0.98	50749	7	49	4	1	5	criticalFoil
22.0069	3.5	criticalItem	n/a	n/a	10744	7	44	5	1	1	n/a
25.4897	3.0	criticalItem	n/a	n/a	50744	7	44	6	1	0	n/a
28.4887	3.0	criticalItem	True	1.642	50744	7	44	7	1	5	criticalTrue
32.005	3.5	controlItem	n/a	n/a	10728	7	28	8	1	1	n/a
35.4882	3.0	controlItem	n/a	n/a	40728	7	28	9	1	0	n/a
38.4887	3.0	controlItem	True	1.037	40728	7	28	10	1	4	controlTrue
42.0032	3.5	criticalItem	n/a	n/a	10721	7	21	11	1	1	n/a
45.4864	3.0	criticalItem	n/a	n/a	50721	7	21	12	1	0	n/a
48.4859	3.0	criticalItem	Foil	0.634	50721	7	21	13	1	5	criticalFoil
52.0021	3.5	criticalItem	n/a	n/a	10726	7	26	14	1	1	n/a
55.4857	3.0	criticalItem	ForbiddenKey	1.266	20726	7	26	15	1	0	n/a
58.4857	3.0	criticalItem	False	0.325	20726	7	26	16	1	2	criticalFalse
62.0017	3.5	criticalItem	n/a	n/a	10729	7	29	17	1	1	n/a
65.4844	3.0	criticalItem	n/a	n/a	20729	7	29	18	1	0	n/a
68.4852	3.0	criticalItem	True	0.49	20729	7	29	19	1	2	criticalTrue
72.0006	3.5	controlItem	n/a	n/a	10734	7	34	20	1	1	n/a
75.4847	3.0	controlItem	n/a	n/a	30734	7	34	21	1	0	n/a
78.4841	3.0	controlItem	Foil2	1.059	30734	7	34	22	1	3	controlFoil2
81.9993	3.5	criticalItem	n/a	n/a	10712	7	12	23	1	1	n/a
85.4833	3.0	criticalItem	n/a	n/a	40712	7	12	24	1	0	n/a
88.4816	3.0	criticalItem	False	0.521	40712	7	12	25	1	4	criticalFalse
91.9996	3.5	controlItem	n/a	n/a	10750	7	50	26	1	1	n/a
95.4812	3.0	controlItem	n/a	n/a	60750	7	50	27	1	0	n/a
98.4824	3.0	controlItem	True	1.058	60750	7	50	28	1	6	controlTrue
102.014	3.5	criticalItem	n/a	n/a	10746	7	46	29	1	1	n/a
105.497	3.0	criticalItem	n/a	n/a	70746	7	46	30	1	0	n/a
108.497	3.0	criticalItem	True	0.802	70746	7	46	31	1	7	criticalTrue
112.012	3.5	criticalItem	n/a	n/a	10735	7	35	32	1	1	n/a
115.498	3.0	criticalItem	n/a	n/a	60735	7	35	33	1	0	n/a
118.496	3.0	criticalItem	False	0.611	60735	7	35	34	1	6	criticalFalse
122.013	3.5	controlItem	n/a	n/a	10708	7	8	35	1	1	n/a
125.495	3.0	controlItem	n/a	n/a	50708	7	8	36	1	0	n/a
128.496	3.0	controlItem	True	0.703	50708	7	8	37	1	5	controlTrue
132.011	3.5	criticalItem	n/a	n/a	10709	7	9	38	1	1	n/a
135.495	3.0	criticalItem	ForbiddenKey	2.131	50709	7	9	39	1	0	n/a
138.494	3.0	criticalItem	True	0.426	50709	7	9	40	1	5	criticalTrue
142.01	3.5	controlItem	n/a	n/a	10707	7	7	41	1	1	n/a
145.493	3.0	controlItem	n/a	n/a	30707	7	7	42	1	0	n/a
148.493	3.0	controlItem	True	0.82	30707	7	7	43	1	3	controlTrue
152.009	3.5	controlItem	n/a	n/a	10718	7	18	44	1	1	n/a
155.493	3.0	controlItem	n/a	n/a	60718	7	18	45	1	0	n/a
158.492	3.0	controlItem	True	0.81	60718	7	18	46	1	6	controlTrue
162.008	3.5	controlItem	n/a	n/a	10705	7	5	47	1	1	n/a
165.491	3.0	controlItem	n/a	n/a	70705	7	5	48	1	0	n/a
168.491	3.0	controlItem	True	1.212	70705	7	5	49	1	7	controlTrue
172.007	3.5	criticalItem	n/a	n/a	10739	7	39	50	1	1	n/a
175.491	3.0	criticalItem	n/a	n/a	20739	7	39	51	1	0	n/a
178.49	3.0	criticalItem	Foil	1.103	20739	7	39	52	1	2	criticalFoil
182.006	3.5	controlItem	n/a	n/a	10720	7	20	53	1	1	n/a
185.49	3.0	controlItem	n/a	n/a	70720	7	20	54	1	0	n/a
188.489	3.0	controlItem	True	0.693	70720	7	20	55	1	7	controlTrue
192.005	3.5	controlItem	n/a	n/a	10740	7	40	56	1	1	n/a
195.489	3.0	controlItem	n/a	n/a	50740	7	40	57	1	0	n/a
198.488	3.0	controlItem	Foil1	0.66	50740	7	40	58	1	5	controlFoil1
202.004	3.5	criticalItem	n/a	n/a	10704	7	4	59	1	1	n/a
205.488	3.0	criticalItem	n/a	n/a	20704	7	4	60	1	0	n/a
208.487	3.0	criticalItem	True	0.615	20704	7	4	61	1	2	criticalTrue
212.004	3.5	controlItem	n/a	n/a	10703	7	3	62	1	1	n/a
215.487	3.0	controlItem	n/a	n/a	60703	7	3	63	1	0	n/a
218.486	3.0	controlItem	Foil1	0.65	60703	7	3	64	1	6	controlFoil1
222.002	3.5	controlItem	n/a	n/a	10714	7	14	65	1	1	n/a
225.486	3.0	controlItem	n/a	n/a	20714	7	14	66	1	0	n/a
228.486	3.0	controlItem	Foil1	0.984	20714	7	14	67	1	2	controlFoil1
232.001	3.5	controlItem	n/a	n/a	10711	7	11	68	1	1	n/a
235.483	3.0	controlItem	n/a	n/a	20711	7	11	69	1	0	n/a
238.483	3.0	controlItem	True	0.765	20711	7	11	70	1	2	controlTrue
242	3.5	criticalItem	n/a	n/a	10719	7	19	71	1	1	n/a
245.484	3.0	criticalItem	n/a	n/a	40719	7	19	72	1	0	n/a
248.484	3.0	criticalItem	False	0.519	40719	7	19	73	1	4	criticalFalse
252	n/a	n/a	n/a	n/a	90700	7	0	74	1	9	n/a
256.015	n/a	n/a	n/a	n/a	81000	10	0	75	1	8	n/a
266.014	3.5	controlItem	n/a	n/a	11040	10	40	76	1	1	n/a
269.497	3.0	controlItem	n/a	n/a	71040	10	40	77	1	0	n/a
272.497	3.0	controlItem	Foil1	0.653	71040	10	40	78	1	7	controlFoil1
276.013	3.5	controlItem	n/a	n/a	11017	10	17	79	1	1	n/a
279.497	3.0	controlItem	n/a	n/a	31017	10	17	80	1	0	n/a
282.496	3.0	controlItem	Foil2	1.104	31017	10	17	81	1	3	controlFoil2
286.012	3.5	criticalItem	n/a	n/a	11023	10	23	82	1	1	n/a
289.495	3.0	criticalItem	n/a	n/a	31023	10	23	83	1	0	n/a
292.495	3.0	criticalItem	False	1.396	31023	10	23	84	1	3	criticalFalse
296.011	3.5	criticalItem	n/a	n/a	11010	10	10	85	1	1	n/a
299.494	3.0	criticalItem	n/a	n/a	61010	10	10	86	1	0	n/a
302.495	3.0	criticalItem	False	1.09	61010	10	10	87	1	6	criticalFalse
306.009	3.5	criticalItem	n/a	n/a	11015	10	15	88	1	1	n/a
309.494	3.0	criticalItem	n/a	n/a	41015	10	15	89	1	0	n/a
312.494	3.0	criticalItem	False	0.648	41015	10	15	90	1	4	criticalFalse
316.01	3.5	controlItem	n/a	n/a	11038	10	38	91	1	1	n/a
319.492	3.0	controlItem	n/a	n/a	41038	10	38	92	1	0	n/a
322.493	3.0	controlItem	Foil1	0.954	41038	10	38	93	1	4	controlFoil1
326.009	3.5	controlItem	n/a	n/a	11049	10	49	94	1	1	n/a
329.492	3.0	controlItem	n/a	n/a	41049	10	49	95	1	0	n/a
332.491	3.0	controlItem	True	0.424	41049	10	49	96	1	4	controlTrue
336.007	3.5	criticalItem	n/a	n/a	11018	10	18	97	1	1	n/a
339.491	3.0	criticalItem	n/a	n/a	21018	10	18	98	1	0	n/a
342.489	3.0	criticalItem	False	1.122	21018	10	18	99	1	2	criticalFalse
346.006	3.5	criticalItem	n/a	n/a	11035	10	35	100	1	1	n/a
349.49	3.0	criticalItem	n/a	n/a	51035	10	35	101	1	0	n/a
352.49	3.0	criticalItem	True	1.031	51035	10	35	102	1	5	criticalTrue
356.006	3.5	controlItem	n/a	n/a	11037	10	37	103	1	1	n/a
359.49	3.0	controlItem	n/a	n/a	61037	10	37	104	1	0	n/a
362.487	3.0	controlItem	Foil1	0.648	61037	10	37	105	1	6	controlFoil1
366.003	3.5	controlItem	n/a	n/a	11029	10	29	106	1	1	n/a
369.486	3.0	controlItem	n/a	n/a	41029	10	29	107	1	0	n/a
372.486	3.0	controlItem	Foil1	0.622	41029	10	29	108	1	4	controlFoil1
376.003	3.5	criticalItem	n/a	n/a	11026	10	26	109	1	1	n/a
379.487	3.0	criticalItem	n/a	n/a	71026	10	26	110	1	0	n/a
382.486	3.0	criticalItem	False	0.507	71026	10	26	111	1	7	criticalFalse
386.002	3.5	criticalItem	n/a	n/a	11033	10	33	112	1	1	n/a
389.486	3.0	criticalItem	n/a	n/a	51033	10	33	113	1	0	n/a
392.485	3.0	criticalItem	True	1.293	51033	10	33	114	1	5	criticalTrue
396.001	3.5	criticalItem	n/a	n/a	11020	10	20	115	1	1	n/a
399.484	3.0	criticalItem	n/a	n/a	21020	10	20	116	1	0	n/a
402.484	3.0	criticalItem	False	0.539	21020	10	20	117	1	2	criticalFalse
406.001	3.5	controlItem	n/a	n/a	11046	10	46	118	1	1	n/a
409.483	3.0	controlItem	n/a	n/a	41046	10	46	119	1	0	n/a
412.482	3.0	controlItem	True	0.653	41046	10	46	120	1	4	controlTrue
415.999	3.5	controlItem	n/a	n/a	11019	10	19	121	1	1	n/a
419.483	3.0	controlItem	n/a	n/a	71019	10	19	122	1	0	n/a
422.481	3.0	controlItem	Foil2	0.753	71019	10	19	123	1	7	controlFoil2
426.015	3.5	criticalItem	n/a	n/a	11003	10	3	124	1	1	n/a
429.498	3.0	criticalItem	n/a	n/a	41003	10	3	125	1	0	n/a
432.498	3.0	criticalItem	True	0.44	41003	10	3	126	1	4	criticalTrue
436.014	3.5	criticalItem	n/a	n/a	11008	10	8	127	1	1	n/a
439.497	3.0	criticalItem	n/a	n/a	21008	10	8	128	1	0	n/a
442.496	3.0	criticalItem	False	1.057	21008	10	8	129	1	2	criticalFalse
446.013	3.5	controlItem	n/a	n/a	11021	10	21	130	1	1	n/a
449.495	3.0	controlItem	n/a	n/a	41021	10	21	131	1	0	n/a
452.496	3.0	controlItem	Foil1	0.588	41021	10	21	132	1	4	controlFoil1
456.011	3.5	controlItem	n/a	n/a	11031	10	31	133	1	1	n/a
459.494	3.0	controlItem	n/a	n/a	61031	10	31	134	1	0	n/a
462.495	3.0	controlItem	Foil1	0.526	61031	10	31	135	1	6	controlFoil1
466.01	3.5	controlItem	n/a	n/a	11028	10	28	136	1	1	n/a
469.494	3.0	controlItem	n/a	n/a	21028	10	28	137	1	0	n/a
472.493	3.0	controlItem	True	0.561	21028	10	28	138	1	2	controlTrue
476.011	3.5	controlItem	n/a	n/a	11039	10	39	139	1	1	n/a
479.493	3.0	controlItem	n/a	n/a	21039	10	39	140	1	0	n/a
482.492	3.0	controlItem	Foil1	0.894	21039	10	39	141	1	2	controlFoil1
486.008	3.5	criticalItem	n/a	n/a	11005	10	5	142	1	1	n/a
489.491	3.0	criticalItem	n/a	n/a	41005	10	5	143	1	0	n/a
492.491	3.0	criticalItem	False	0.6	41005	10	5	144	1	4	criticalFalse
496.008	3.5	criticalItem	n/a	n/a	11045	10	45	145	1	1	n/a
499.491	3.0	criticalItem	n/a	n/a	71045	10	45	146	1	0	n/a
502.491	3.0	criticalItem	False	0.918	71045	10	45	147	1	7	criticalFalse
506.007	n/a	n/a	n/a	n/a	91000	10	0	148	1	9	n/a
