onset	duration	trial_type	response	response_time	stim_id	stim_version	stim_events	stim_slides	trial_id	run_id	stim_redcross	subsequent_response_type
2.0303	n/a	n/a	n/a	n/a	80700	8	7	0	211	3	n/a	n/a
6.0255	3.5	genericItem	n/a	n/a	10701	1	7	1	212	3	n/a	n/a
10.0228	3.5	genericItem	n/a	n/a	10702	1	7	2	213	3	n/a	n/a
14.0238	3.5	controlItem	n/a	n/a	10703	1	7	3	214	3	n/a	controlTrue
18.024	3.5	criticalItem	n/a	n/a	20704	2	7	4	215	3	n/a	criticalTrue
22.0241	3.5	controlItem	n/a	n/a	10705	1	7	5	216	3	n/a	controlTrue
26.0236	3.5	genericItem	n/a	n/a	10706	1	7	6	217	3	n/a	n/a
30.0236	3.5	controlItem	n/a	n/a	10707	1	7	7	218	3	n/a	controlTrue
34.0234	3.5	controlItem	n/a	n/a	10708	1	7	8	219	3	n/a	controlTrue
38.0219	3.5	criticalItem	n/a	n/a	20709	2	7	9	220	3	n/a	criticalFalse
42.0245	3.5	genericItem	n/a	n/a	10710	1	7	10	221	3	n/a	n/a
46.024	3.5	controlItem	n/a	n/a	10711	1	7	11	222	3	n/a	controlFoil1
50.0235	3.5	criticalItem	n/a	n/a	20712	2	7	12	223	3	n/a	criticalFalse
54.0242	3.5	genericItem	n/a	n/a	10713	1	7	13	224	3	n/a	n/a
58.0304	3.5	controlItem	n/a	n/a	10714	1	7	14	225	3	n/a	controlFoil1
62.024	3.5	genericItem	n/a	n/a	10715	1	7	15	226	3	n/a	n/a
66.024	3.5	genericItem	n/a	n/a	10716	1	7	16	227	3	n/a	n/a
70.0234	3.5	genericItem	n/a	n/a	10717	1	7	17	228	3	n/a	n/a
74.0239	3.5	controlItem	n/a	n/a	10718	1	7	18	229	3	n/a	controlTrue
78.023	3.5	criticalItem	n/a	n/a	20719	2	7	19	230	3	n/a	criticalTrue
82.0255	3.5	controlItem	n/a	n/a	10720	1	7	20	231	3	n/a	controlTrue
86.0235	3.5	criticalItem	n/a	n/a	20721	2	7	21	232	3	n/a	criticalFoil
90.025	3.5	genericItem	n/a	n/a	10722	1	7	22	233	3	n/a	n/a
94.025	3.5	genericItem	1	0.779	10723	1	7	23	234	3	1	n/a
98.0238	3.5	genericItem	1	0.861	10724	1	7	24	235	3	1	n/a
102.024	3.5	genericItem	n/a	n/a	10725	1	7	25	236	3	n/a	n/a
106.023	3.5	criticalItem	n/a	n/a	20726	2	7	26	237	3	n/a	criticalTrue
110.023	3.5	genericItem	n/a	n/a	10727	1	7	27	238	3	n/a	n/a
114.023	3.5	controlItem	n/a	n/a	10728	1	7	28	239	3	n/a	controlTrue
118.023	3.5	criticalItem	n/a	n/a	20729	2	7	29	240	3	n/a	criticalTrue
122.024	3.5	genericItem	n/a	n/a	10730	1	7	30	241	3	n/a	n/a
126.023	3.5	genericItem	n/a	n/a	10731	1	7	31	242	3	n/a	n/a
130.024	3.5	genericItem	n/a	n/a	10732	1	7	32	243	3	n/a	n/a
134.022	3.5	genericItem	n/a	n/a	10733	1	7	33	244	3	n/a	n/a
138.023	3.5	controlItem	n/a	n/a	10734	1	7	34	245	3	n/a	controlTrue
142.023	3.5	criticalItem	n/a	n/a	20735	2	7	35	246	3	n/a	criticalFoil
146.025	3.5	genericItem	n/a	n/a	10736	1	7	36	247	3	n/a	n/a
150.024	3.5	genericItem	n/a	n/a	10737	1	7	37	248	3	n/a	n/a
154.025	3.5	genericItem	n/a	n/a	10738	1	7	38	249	3	n/a	n/a
158.023	3.5	criticalItem	n/a	n/a	20739	2	7	39	250	3	n/a	criticalTrue
162.023	3.5	controlItem	n/a	n/a	10740	1	7	40	251	3	n/a	controlTrue
166.023	3.5	genericItem	n/a	n/a	10741	1	7	41	252	3	n/a	n/a
170.023	3.5	genericItem	n/a	n/a	10742	1	7	42	253	3	n/a	n/a
174.022	3.5	genericItem	n/a	n/a	10743	1	7	43	254	3	n/a	n/a
178.023	3.5	criticalItem	n/a	n/a	20744	2	7	44	255	3	n/a	criticalFalse
182.024	3.5	genericItem	n/a	n/a	10745	1	7	45	256	3	n/a	n/a
186.023	3.5	criticalItem	n/a	n/a	20746	2	7	46	257	3	n/a	criticalFoil
190.025	3.5	genericItem	n/a	n/a	10747	1	7	47	258	3	n/a	n/a
194.023	3.5	genericItem	n/a	n/a	10748	1	7	48	259	3	n/a	n/a
198.024	3.5	criticalItem	n/a	n/a	20749	2	7	49	260	3	n/a	criticalTrue
202.026	3.5	controlItem	n/a	n/a	10750	1	7	50	261	3	n/a	controlTrue
206.02	n/a	n/a	n/a	n/a	90700	9	7	0	262	3	n/a	n/a
210.019	n/a	n/a	n/a	n/a	81000	8	10	0	263	3	n/a	n/a
214.022	3.5	genericItem	n/a	n/a	11001	1	10	1	264	3	n/a	n/a
218.022	3.5	genericItem	n/a	n/a	11002	1	10	2	265	3	n/a	n/a
222.026	3.5	criticalItem	n/a	n/a	21003	2	10	3	266	3	n/a	criticalFoil
226.024	3.5	genericItem	n/a	n/a	11004	1	10	4	267	3	n/a	n/a
230.026	3.5	criticalItem	n/a	n/a	21005	2	10	5	268	3	n/a	criticalTrue
234.024	3.5	genericItem	1	0.68	11006	1	10	6	269	3	1	n/a
238.024	3.5	genericItem	n/a	n/a	11007	1	10	7	270	3	n/a	n/a
242.025	3.5	criticalItem	n/a	n/a	21008	2	10	8	271	3	n/a	criticalFalse
246.023	3.5	genericItem	n/a	n/a	11009	1	10	9	272	3	n/a	n/a
250.024	3.5	criticalItem	n/a	n/a	21010	2	10	10	273	3	n/a	criticalFalse
254.023	3.5	genericItem	n/a	n/a	11011	1	10	11	274	3	n/a	n/a
258.024	3.5	genericItem	n/a	n/a	11012	1	10	12	275	3	n/a	n/a
262.024	3.5	genericItem	n/a	n/a	11013	1	10	13	276	3	n/a	n/a
266.023	3.5	genericItem	n/a	n/a	11014	1	10	14	277	3	n/a	n/a
270.026	3.5	criticalItem	n/a	n/a	21015	2	10	15	278	3	n/a	criticalTrue
274.023	3.5	genericItem	n/a	n/a	11016	1	10	16	279	3	n/a	n/a
278.026	3.5	controlItem	n/a	n/a	11017	1	10	17	280	3	n/a	controlFoil2
282.026	3.5	criticalItem	n/a	n/a	21018	2	10	18	281	3	n/a	criticalTrue
286.025	3.5	controlItem	n/a	n/a	11019	1	10	19	282	3	n/a	controlFoil2
290.026	3.5	criticalItem	n/a	n/a	21020	2	10	20	283	3	n/a	criticalTrue
294.024	3.5	controlItem	n/a	n/a	11021	1	10	21	284	3	n/a	controlTrue
298.025	3.5	genericItem	n/a	n/a	11022	1	10	22	285	3	n/a	n/a
302.024	3.5	criticalItem	n/a	n/a	21023	2	10	23	286	3	n/a	criticalTrue
306.025	3.5	genericItem	n/a	n/a	11024	1	10	24	287	3	n/a	n/a
310.022	3.5	genericItem	n/a	n/a	11025	1	10	25	288	3	n/a	n/a
314.023	3.5	criticalItem	n/a	n/a	21026	2	10	26	289	3	n/a	criticalFalse
318.024	3.5	genericItem	n/a	n/a	11027	1	10	27	290	3	n/a	n/a
322.022	3.5	controlItem	n/a	n/a	11028	1	10	28	291	3	n/a	controlFoil2
326.022	3.5	controlItem	n/a	n/a	11029	1	10	29	292	3	n/a	controlTrue
330.022	3.5	genericItem	n/a	n/a	11030	1	10	30	293	3	n/a	n/a
334.023	3.5	controlItem	n/a	n/a	11031	1	10	31	294	3	n/a	controlFoil1
338.024	3.5	genericItem	n/a	n/a	11032	1	10	32	295	3	n/a	n/a
342.024	3.5	criticalItem	n/a	n/a	21033	2	10	33	296	3	n/a	criticalFoil
346.024	3.5	genericItem	n/a	n/a	11034	1	10	34	297	3	n/a	n/a
350.025	3.5	criticalItem	n/a	n/a	21035	2	10	35	298	3	n/a	criticalFalse
354.024	3.5	genericItem	n/a	n/a	11036	1	10	36	299	3	n/a	n/a
358.023	3.5	controlItem	n/a	n/a	11037	1	10	37	300	3	n/a	controlTrue
362.024	3.5	controlItem	n/a	n/a	11038	1	10	38	301	3	n/a	controlFoil2
366.024	3.5	controlItem	n/a	n/a	11039	1	10	39	302	3	n/a	controlFoil2
370.024	3.5	controlItem	n/a	n/a	11040	1	10	40	303	3	n/a	controlTrue
374.024	3.5	genericItem	n/a	n/a	11041	1	10	41	304	3	n/a	n/a
378.025	3.5	genericItem	n/a	n/a	11042	1	10	42	305	3	n/a	n/a
382.024	3.5	genericItem	n/a	n/a	11043	1	10	43	306	3	n/a	n/a
386.022	3.5	genericItem	n/a	n/a	11044	1	10	44	307	3	n/a	n/a
390.025	3.5	criticalItem	n/a	n/a	21045	2	10	45	308	3	n/a	criticalFalse
394.024	3.5	controlItem	n/a	n/a	11046	1	10	46	309	3	n/a	controlFoil2
398.024	3.5	genericItem	1	0.521	11047	1	10	47	310	3	1	n/a
402.024	3.5	genericItem	n/a	n/a	11048	1	10	48	311	3	n/a	n/a
406.024	3.5	controlItem	n/a	n/a	11049	1	10	49	312	3	n/a	controlTrue
410.025	3.5	genericItem	n/a	n/a	11050	1	10	50	313	3	n/a	n/a
414.021	n/a	n/a	n/a	n/a	91000	9	10	0	314	3	n/a	n/a
418.019	n/a	n/a	n/a	n/a	90000	9	0	0	315	3	n/a	n/a
