onset	duration	trial_type	response	response_time	stim_id	stim_version	stim_events	stim_slides	trial_id	run_id	stim_redcross	subsequent_response_type
2.0945	n/a	n/a	n/a	n/a	80300	8	3	0	106	2	n/a	n/a
6.0635	3.5	genericItem	n/a	n/a	10301	1	3	1	107	2	n/a	n/a
10.0954	3.5	genericItem	n/a	n/a	10302	1	3	2	108	2	n/a	n/a
14.0292	3.5	controlItem	n/a	n/a	10303	1	3	3	109	2	n/a	controlTrue
18.0688	3.5	genericItem	1	0.568	10304	1	3	4	110	2	1	n/a
22.1198	3.5	criticalItem	n/a	n/a	20305	2	3	5	111	2	n/a	criticalTrue
26.0321	3.5	genericItem	n/a	n/a	10306	1	3	6	112	2	n/a	n/a
30.0646	3.5	genericItem	1	0.574	10307	1	3	7	113	2	1	n/a
34.0997	3.5	genericItem	n/a	n/a	10308	1	3	8	114	2	n/a	n/a
38.045	3.5	controlItem	n/a	n/a	10309	1	3	9	115	2	n/a	controlTrue
42.0748	3.5	genericItem	n/a	n/a	10310	1	3	10	116	2	n/a	n/a
46.0924	3.5	genericItem	n/a	n/a	10311	1	3	11	117	2	n/a	n/a
50.1077	3.5	genericItem	n/a	n/a	10312	1	3	12	118	2	n/a	n/a
54.0704	3.5	controlItem	n/a	n/a	10313	1	3	13	119	2	n/a	controlTrue
58.092	3.5	genericItem	n/a	n/a	10314	1	3	14	120	2	n/a	n/a
62.1027	3.5	genericItem	n/a	n/a	10315	1	3	15	121	2	n/a	n/a
66.089	3.5	criticalItem	n/a	n/a	20316	2	3	16	122	2	n/a	criticalTrue
70.0972	3.5	controlItem	n/a	n/a	10317	1	3	17	123	2	n/a	controlTrue
74.1084	3.5	genericItem	n/a	n/a	10318	1	3	18	124	2	n/a	n/a
78.0677	3.5	criticalItem	n/a	n/a	20319	2	3	19	125	2	n/a	criticalFalse
82.088	3.5	controlItem	n/a	n/a	10320	1	3	20	126	2	n/a	controlTrue
86.1043	3.5	genericItem	n/a	n/a	10321	1	3	21	127	2	n/a	n/a
90.1036	3.5	criticalItem	n/a	n/a	20322	2	3	22	128	2	n/a	criticalTrue
94.0982	3.5	genericItem	1	0.516	10323	1	3	23	129	2	1	n/a
98.107	3.5	criticalItem	n/a	n/a	20324	2	3	24	130	2	n/a	criticalFalse
102.031	3.5	controlItem	n/a	n/a	10325	1	3	25	131	2	n/a	controlTrue
106.09	3.5	genericItem	n/a	n/a	10326	1	3	26	132	2	n/a	n/a
110.053	3.5	criticalItem	n/a	n/a	20327	2	3	27	133	2	n/a	criticalTrue
114.043	3.5	genericItem	n/a	n/a	10328	1	3	28	134	2	n/a	n/a
118.044	3.5	controlItem	n/a	n/a	10329	1	3	29	135	2	n/a	controlTrue
122.088	3.5	criticalItem	n/a	n/a	20330	2	3	30	136	2	n/a	criticalFalse
126.109	3.5	controlItem	n/a	n/a	10331	1	3	31	137	2	n/a	controlFoil1
130.098	3.5	criticalItem	n/a	n/a	20332	2	3	32	138	2	n/a	criticalTrue
134.104	3.5	genericItem	n/a	n/a	10333	1	3	33	139	2	n/a	n/a
138.101	3.5	genericItem	n/a	n/a	10334	1	3	34	140	2	n/a	n/a
142.087	3.5	genericItem	n/a	n/a	10335	1	3	35	141	2	n/a	n/a
146.103	3.5	criticalItem	n/a	n/a	20336	2	3	36	142	2	n/a	criticalFoil
150.041	3.5	genericItem	1	0.954	10337	1	3	37	143	2	1	n/a
154.129	3.5	genericItem	n/a	n/a	10338	1	3	38	144	2	n/a	n/a
158.094	3.5	genericItem	n/a	n/a	10339	1	3	39	145	2	n/a	n/a
162.109	3.5	genericItem	n/a	n/a	10340	1	3	40	146	2	n/a	n/a
166.097	3.5	criticalItem	n/a	n/a	20341	2	3	41	147	2	n/a	criticalFoil
170.103	3.5	controlItem	n/a	n/a	10342	1	3	42	148	2	n/a	controlFoil2
174.075	3.5	genericItem	n/a	n/a	10343	1	3	43	149	2	n/a	n/a
178.091	3.5	criticalItem	n/a	n/a	20344	2	3	44	150	2	n/a	criticalFalse
182.12	3.5	controlItem	n/a	n/a	10345	1	3	45	151	2	n/a	controlFoil1
186.096	3.5	genericItem	n/a	n/a	10346	1	3	46	152	2	n/a	n/a
190.1	3.5	criticalItem	n/a	n/a	20347	2	3	47	153	2	n/a	criticalFalse
194.108	3.5	controlItem	n/a	n/a	10348	1	3	48	154	2	n/a	controlTrue
198.079	3.5	genericItem	n/a	n/a	10349	1	3	49	155	2	n/a	n/a
202.097	3.5	controlItem	n/a	n/a	10350	1	3	50	156	2	n/a	controlTrue
206.09	n/a	n/a	n/a	n/a	90300	9	3	0	157	2	n/a	n/a
210.024	n/a	n/a	n/a	n/a	81000	8	10	0	158	2	n/a	n/a
214.026	3.5	genericItem	n/a	n/a	11001	1	10	1	159	2	n/a	n/a
218.027	3.5	genericItem	n/a	n/a	11002	1	10	2	160	2	n/a	n/a
222.029	3.5	criticalItem	n/a	n/a	11003	1	10	3	161	2	n/a	criticalTrue
226.026	3.5	genericItem	n/a	n/a	11004	1	10	4	162	2	n/a	n/a
230.028	3.5	criticalItem	n/a	n/a	11005	1	10	5	163	2	n/a	criticalFoil
234.028	3.5	genericItem	n/a	n/a	11006	1	10	6	164	2	n/a	n/a
238.025	3.5	genericItem	n/a	n/a	11007	1	10	7	165	2	n/a	n/a
242.027	3.5	criticalItem	n/a	n/a	11008	1	10	8	166	2	n/a	criticalFalse
246.026	3.5	genericItem	1	0.51	11009	1	10	9	167	2	1	n/a
250.029	3.5	criticalItem	n/a	n/a	11010	1	10	10	168	2	n/a	criticalTrue
254.028	3.5	genericItem	n/a	n/a	11011	1	10	11	169	2	n/a	n/a
258.028	3.5	genericItem	n/a	n/a	11012	1	10	12	170	2	n/a	n/a
262.029	3.5	genericItem	n/a	n/a	11013	1	10	13	171	2	n/a	n/a
266.027	3.5	genericItem	n/a	n/a	11014	1	10	14	172	2	n/a	n/a
270.027	3.5	criticalItem	n/a	n/a	11015	1	10	15	173	2	n/a	criticalTrue
274.028	3.5	genericItem	n/a	n/a	11016	1	10	16	174	2	n/a	n/a
278.028	3.5	controlItem	n/a	n/a	11017	1	10	17	175	2	n/a	controlFoil1
282.029	3.5	criticalItem	n/a	n/a	11018	1	10	18	176	2	n/a	criticalFalse
286.028	3.5	controlItem	n/a	n/a	11019	1	10	19	177	2	n/a	controlFoil2
290.029	3.5	criticalItem	n/a	n/a	11020	1	10	20	178	2	n/a	criticalTrue
294.03	3.5	controlItem	n/a	n/a	11021	1	10	21	179	2	n/a	controlTrue
298.029	3.5	genericItem	n/a	n/a	11022	1	10	22	180	2	n/a	n/a
302.027	3.5	criticalItem	n/a	n/a	11023	1	10	23	181	2	n/a	criticalFoil
306.027	3.5	genericItem	n/a	n/a	11024	1	10	24	182	2	n/a	n/a
310.027	3.5	genericItem	n/a	n/a	11025	1	10	25	183	2	n/a	n/a
314.026	3.5	criticalItem	n/a	n/a	11026	1	10	26	184	2	n/a	criticalFoil
318.029	3.5	genericItem	1	0.834	11027	1	10	27	185	2	1	n/a
322.027	3.5	controlItem	n/a	n/a	11028	1	10	28	186	2	n/a	controlTrue
326.025	3.5	controlItem	n/a	n/a	11029	1	10	29	187	2	n/a	controlFoil2
330.027	3.5	genericItem	n/a	n/a	11030	1	10	30	188	2	n/a	n/a
334.028	3.5	controlItem	n/a	n/a	11031	1	10	31	189	2	n/a	controlTrue
338.028	3.5	genericItem	n/a	n/a	11032	1	10	32	190	2	n/a	n/a
342.026	3.5	criticalItem	n/a	n/a	11033	1	10	33	191	2	n/a	criticalFoil
346.027	3.5	genericItem	n/a	n/a	11034	1	10	34	192	2	n/a	n/a
350.028	3.5	criticalItem	n/a	n/a	11035	1	10	35	193	2	n/a	criticalFoil
354.026	3.5	genericItem	n/a	n/a	11036	1	10	36	194	2	n/a	n/a
358.026	3.5	controlItem	n/a	n/a	11037	1	10	37	195	2	n/a	controlTrue
362.029	3.5	controlItem	n/a	n/a	11038	1	10	38	196	2	n/a	controlFoil1
366.031	3.5	controlItem	n/a	n/a	11039	1	10	39	197	2	n/a	controlFoil2
370.028	3.5	controlItem	n/a	n/a	11040	1	10	40	198	2	n/a	controlFoil1
374.028	3.5	genericItem	n/a	n/a	11041	1	10	41	199	2	n/a	n/a
378.027	3.5	genericItem	n/a	n/a	11042	1	10	42	200	2	n/a	n/a
382.027	3.5	genericItem	n/a	n/a	11043	1	10	43	201	2	n/a	n/a
386.028	3.5	genericItem	n/a	n/a	11044	1	10	44	202	2	n/a	n/a
390.029	3.5	criticalItem	n/a	n/a	11045	1	10	45	203	2	n/a	criticalFalse
394.03	3.5	controlItem	n/a	n/a	11046	1	10	46	204	2	n/a	controlFoil2
398.028	3.5	genericItem	n/a	n/a	11047	1	10	47	205	2	n/a	n/a
402.027	3.5	genericItem	n/a	n/a	11048	1	10	48	206	2	n/a	n/a
406.026	3.5	controlItem	n/a	n/a	11049	1	10	49	207	2	n/a	controlTrue
410.03	3.5	genericItem	n/a	n/a	11050	1	10	50	208	2	n/a	n/a
414.024	n/a	n/a	n/a	n/a	91000	9	10	0	209	2	n/a	n/a
418.025	n/a	n/a	n/a	n/a	90000	9	0	0	210	2	n/a	n/a
