onset	duration	trial_type	response	response_time	stim_id	stim_version	stim_events	stim_slides	trial_id	run_id	stim_redcross	subsequent_response_type
2.1001	n/a	n/a	n/a	n/a	80500	8	5	0	1	1	n/a	n/a
6.0846	3.5	genericItem	1	0.496	10501	1	5	1	2	1	1	n/a
10.0928	3.5	genericItem	n/a	n/a	10502	1	5	2	3	1	n/a	n/a
14.0801	3.5	criticalItem	n/a	n/a	20503	2	5	3	4	1	n/a	criticalFalse
18.0215	3.5	genericItem	n/a	n/a	10504	1	5	4	5	1	n/a	n/a
22.0724	3.5	criticalItem	n/a	n/a	20505	2	5	5	6	1	n/a	criticalFalse
26.0205	3.5	genericItem	n/a	n/a	10506	1	5	6	7	1	n/a	n/a
30.0552	3.5	genericItem	n/a	n/a	10507	1	5	7	8	1	n/a	n/a
34.0745	3.5	genericItem	n/a	n/a	10508	1	5	8	9	1	n/a	n/a
38.0941	3.5	genericItem	n/a	n/a	10509	1	5	9	10	1	n/a	n/a
42.0886	3.5	genericItem	n/a	n/a	10510	1	5	10	11	1	n/a	n/a
46.0357	3.5	genericItem	n/a	n/a	10511	1	5	11	12	1	n/a	n/a
50.0382	3.5	genericItem	n/a	n/a	10512	1	5	12	13	1	n/a	n/a
54.1423	3.5	genericItem	n/a	n/a	10513	1	5	13	14	1	n/a	n/a
58.0724	3.5	controlItem	n/a	n/a	10514	1	5	14	15	1	n/a	controlFoil2
62.0566	3.5	controlItem	n/a	n/a	10515	1	5	15	16	1	n/a	controlTrue
66.0824	3.5	criticalItem	n/a	n/a	20516	2	5	16	17	1	n/a	criticalTrue
70.0636	3.5	controlItem	n/a	n/a	10517	1	5	17	18	1	n/a	controlFoil1
74.0754	3.5	controlItem	n/a	n/a	10518	1	5	18	19	1	n/a	controlTrue
78.0677	3.5	criticalItem	n/a	n/a	20519	2	5	19	20	1	n/a	criticalFalse
82.0741	3.5	genericItem	n/a	n/a	10520	1	5	20	21	1	n/a	n/a
86.0994	3.5	criticalItem	n/a	n/a	20521	2	5	21	22	1	n/a	criticalFalse
90.0877	3.5	controlItem	n/a	n/a	10522	1	5	22	23	1	n/a	controlFoil1
94.0208	3.5	criticalItem	n/a	n/a	20523	2	5	23	24	1	n/a	criticalTrue
98.0543	3.5	controlItem	n/a	n/a	10524	1	5	24	25	1	n/a	controlTrue
102.063	3.5	controlItem	n/a	n/a	10525	1	5	25	26	1	n/a	controlTrue
106.073	3.5	criticalItem	n/a	n/a	20526	2	5	26	27	1	n/a	criticalFalse
110.02	3.5	controlItem	n/a	n/a	10527	1	5	27	28	1	n/a	controlTrue
114.053	3.5	genericItem	n/a	n/a	10528	1	5	28	29	1	n/a	n/a
118.072	3.5	genericItem	1	0.665	10529	1	5	29	30	1	1	n/a
122.086	3.5	genericItem	n/a	n/a	10530	1	5	30	31	1	n/a	n/a
126.07	3.5	criticalItem	n/a	n/a	20531	2	5	31	32	1	n/a	criticalTrue
130.034	3.5	controlItem	n/a	n/a	10532	1	5	32	33	1	n/a	controlTrue
134.087	3.5	genericItem	n/a	n/a	10533	1	5	33	34	1	n/a	n/a
138.088	3.5	genericItem	n/a	n/a	10534	1	5	34	35	1	n/a	n/a
142.072	3.5	genericItem	n/a	n/a	10535	1	5	35	36	1	n/a	n/a
146.021	3.5	genericItem	n/a	n/a	10536	1	5	36	37	1	n/a	n/a
150.097	3.5	genericItem	n/a	n/a	10537	1	5	37	38	1	n/a	n/a
154.079	3.5	genericItem	n/a	n/a	10538	1	5	38	39	1	n/a	n/a
158.065	3.5	criticalItem	n/a	n/a	20539	2	5	39	40	1	n/a	criticalFalse
162.077	3.5	genericItem	n/a	n/a	10540	1	5	40	41	1	n/a	n/a
166.032	3.5	criticalItem	n/a	n/a	20541	2	5	41	42	1	n/a	criticalFoil
170.067	3.5	controlItem	n/a	n/a	10542	1	5	42	43	1	n/a	controlTrue
174.081	3.5	genericItem	n/a	n/a	10543	1	5	43	44	1	n/a	n/a
178.021	3.5	genericItem	n/a	n/a	10544	1	5	44	45	1	n/a	n/a
182.022	3.5	genericItem	n/a	n/a	10545	1	5	45	46	1	n/a	n/a
186.021	3.5	controlItem	n/a	n/a	10546	1	5	46	47	1	n/a	controlTrue
190.097	3.5	criticalItem	n/a	n/a	20547	2	5	47	48	1	n/a	criticalFalse
194.058	3.5	genericItem	n/a	n/a	10548	1	5	48	49	1	n/a	n/a
198.082	3.5	controlItem	n/a	n/a	10549	1	5	49	50	1	n/a	controlTrue
202.076	3.5	criticalItem	n/a	n/a	20550	2	5	50	51	1	n/a	criticalFalse
206.053	n/a	n/a	n/a	n/a	90500	9	5	0	52	1	n/a	n/a
210.02	n/a	n/a	n/a	n/a	80900	8	9	0	53	1	n/a	n/a
214.073	3.5	genericItem	n/a	n/a	10901	1	9	1	54	1	n/a	n/a
218.021	3.5	genericItem	1	0.887	10902	1	9	2	55	1	1	n/a
222.021	3.5	controlItem	n/a	n/a	10903	1	9	3	56	1	n/a	controlTrue
226.074	3.5	criticalItem	n/a	n/a	10904	1	9	4	57	1	n/a	criticalTrue
230.022	3.5	controlItem	n/a	n/a	10905	1	9	5	58	1	n/a	controlFoil1
234.081	3.5	genericItem	n/a	n/a	10906	1	9	6	59	1	n/a	n/a
238.022	3.5	genericItem	n/a	n/a	10907	1	9	7	60	1	n/a	n/a
242.049	3.5	criticalItem	n/a	n/a	10908	1	9	8	61	1	n/a	criticalFoil
246.088	3.5	controlItem	n/a	n/a	10909	1	9	9	62	1	n/a	controlTrue
250.021	3.5	criticalItem	n/a	n/a	10910	1	9	10	63	1	n/a	criticalTrue
254.054	3.5	controlItem	n/a	n/a	10911	1	9	11	64	1	n/a	controlTrue
258.02	3.5	genericItem	n/a	n/a	10912	1	9	12	65	1	n/a	n/a
262.021	3.5	criticalItem	n/a	n/a	10913	1	9	13	66	1	n/a	criticalTrue
266.052	3.5	genericItem	n/a	n/a	10914	1	9	14	67	1	n/a	n/a
270.078	3.5	controlItem	n/a	n/a	10915	1	9	15	68	1	n/a	controlFoil1
274.022	3.5	genericItem	n/a	n/a	10916	1	9	16	69	1	n/a	n/a
278.093	3.5	controlItem	n/a	n/a	10917	1	9	17	70	1	n/a	controlTrue
282.067	3.5	genericItem	n/a	n/a	10918	1	9	18	71	1	n/a	n/a
286.074	3.5	criticalItem	n/a	n/a	10919	1	9	19	72	1	n/a	criticalTrue
290.021	3.5	genericItem	n/a	n/a	10920	1	9	20	73	1	n/a	n/a
294.021	3.5	genericItem	n/a	n/a	10921	1	9	21	74	1	n/a	n/a
298.021	3.5	criticalItem	n/a	n/a	10922	1	9	22	75	1	n/a	criticalFalse
302.056	3.5	controlItem	n/a	n/a	10923	1	9	23	76	1	n/a	controlTrue
306.082	3.5	criticalItem	n/a	n/a	10924	1	9	24	77	1	n/a	criticalTrue
310.084	3.5	genericItem	n/a	n/a	10925	1	9	25	78	1	n/a	n/a
314.021	3.5	criticalItem	n/a	n/a	10926	1	9	26	79	1	n/a	criticalTrue
318.113	3.5	genericItem	n/a	n/a	10927	1	9	27	80	1	n/a	n/a
322.021	3.5	criticalItem	n/a	n/a	10928	1	9	28	81	1	n/a	criticalFalse
326.062	3.5	genericItem	n/a	n/a	10929	1	9	29	82	1	n/a	n/a
330.052	3.5	genericItem	n/a	n/a	10930	1	9	30	83	1	n/a	n/a
334.079	3.5	controlItem	n/a	n/a	10931	1	9	31	84	1	n/a	controlTrue
338.021	3.5	genericItem	n/a	n/a	10932	1	9	32	85	1	n/a	n/a
342.021	3.5	genericItem	n/a	n/a	10933	1	9	33	86	1	n/a	n/a
346.021	3.5	genericItem	n/a	n/a	10934	1	9	34	87	1	n/a	n/a
350.021	3.5	criticalItem	n/a	n/a	10935	1	9	35	88	1	n/a	criticalTrue
354.021	3.5	genericItem	n/a	n/a	10936	1	9	36	89	1	n/a	n/a
358.097	3.5	genericItem	n/a	n/a	10937	1	9	37	90	1	n/a	n/a
362.058	3.5	genericItem	n/a	n/a	10938	1	9	38	91	1	n/a	n/a
366.079	3.5	genericItem	n/a	n/a	10939	1	9	39	92	1	n/a	n/a
370.072	3.5	genericItem	n/a	n/a	10940	1	9	40	93	1	n/a	n/a
374.032	3.5	criticalItem	n/a	n/a	10941	1	9	41	94	1	n/a	criticalFalse
378.033	3.5	genericItem	n/a	n/a	10942	1	9	42	95	1	n/a	n/a
382.022	3.5	controlItem	n/a	n/a	10943	1	9	43	96	1	n/a	controlTrue
386.021	3.5	genericItem	n/a	n/a	10944	1	9	44	97	1	1	n/a
390.021	3.5	controlItem	n/a	n/a	10945	1	9	45	98	1	n/a	controlTrue
394.021	3.5	genericItem	n/a	n/a	10946	1	9	46	99	1	n/a	n/a
398.021	3.5	controlItem	n/a	n/a	10947	1	9	47	100	1	n/a	controlTrue
402.056	3.5	genericItem	n/a	n/a	10948	1	9	48	101	1	n/a	n/a
406.074	3.5	criticalItem	n/a	n/a	10949	1	9	49	102	1	n/a	criticalFoil
410.12	3.5	controlItem	n/a	n/a	10950	1	9	50	103	1	n/a	controlTrue
414.057	n/a	n/a	n/a	n/a	90900	9	9	0	104	1	n/a	n/a
418.073	n/a	n/a	n/a	n/a	90000	5	0	0	105	1	n/a	n/a
