onset	duration	trial_type	response	response_time	stim_id	stim_version	stim_events	stim_slides	trial_id	run_id	stim_redcross	subsequent_response_type
2.1221	n/a	n/a	n/a	n/a	80300	8	3	0	211	3	n/a	n/a
6.0849	3.5	genericItem	n/a	n/a	10301	1	3	1	212	3	n/a	n/a
10.0204	3.5	genericItem	n/a	n/a	10302	1	3	2	213	3	n/a	n/a
14.021	3.5	controlItem	n/a	n/a	10303	1	3	3	214	3	n/a	controlTrue
18.0391	3.5	genericItem	n/a	n/a	10304	1	3	4	215	3	1	n/a
22.0534	3.5	criticalItem	n/a	n/a	10305	1	3	5	216	3	n/a	criticalTrue
26.0212	3.5	genericItem	n/a	n/a	10306	1	3	6	217	3	n/a	n/a
30.105	3.5	genericItem	n/a	n/a	10307	1	3	7	218	3	n/a	n/a
34.0353	3.5	genericItem	n/a	n/a	10308	1	3	8	219	3	n/a	n/a
38.0808	3.5	controlItem	n/a	n/a	10309	1	3	9	220	3	n/a	controlFoil1
42.0212	3.5	genericItem	n/a	n/a	10310	1	3	10	221	3	n/a	n/a
46.0214	3.5	genericItem	n/a	n/a	10311	1	3	11	222	3	n/a	n/a
50.0212	3.5	genericItem	n/a	n/a	10312	1	3	12	223	3	n/a	n/a
54.0205	3.5	controlItem	n/a	n/a	10313	1	3	13	224	3	n/a	controlTrue
58.0563	3.5	genericItem	n/a	n/a	10314	1	3	14	225	3	n/a	n/a
62.0204	3.5	genericItem	n/a	n/a	10315	1	3	15	226	3	n/a	n/a
66.0206	3.5	criticalItem	n/a	n/a	10316	1	3	16	227	3	n/a	criticalTrue
70.0974	3.5	controlItem	n/a	n/a	10317	1	3	17	228	3	n/a	controlTrue
74.0211	3.5	genericItem	n/a	n/a	10318	1	3	18	229	3	n/a	n/a
78.0209	3.5	criticalItem	n/a	n/a	10319	1	3	19	230	3	n/a	criticalTrue
82.0586	3.5	controlItem	n/a	n/a	10320	1	3	20	231	3	n/a	controlTrue
86.0291	3.5	genericItem	n/a	n/a	10321	1	3	21	232	3	n/a	n/a
90.0207	3.5	criticalItem	n/a	n/a	10322	1	3	22	233	3	n/a	criticalTrue
94.0211	3.5	genericItem	n/a	n/a	10323	1	3	23	234	3	n/a	n/a
98.021	3.5	criticalItem	n/a	n/a	10324	1	3	24	235	3	n/a	criticalTrue
102.022	3.5	controlItem	n/a	n/a	10325	1	3	25	236	3	n/a	controlTrue
106.027	3.5	genericItem	n/a	n/a	10326	1	3	26	237	3	n/a	n/a
110.098	3.5	criticalItem	n/a	n/a	10327	1	3	27	238	3	n/a	criticalTrue
114.077	3.5	genericItem	n/a	n/a	10328	1	3	28	239	3	n/a	n/a
118.02	3.5	controlItem	n/a	n/a	10329	1	3	29	240	3	n/a	controlTrue
122.02	3.5	criticalItem	n/a	n/a	10330	1	3	30	241	3	n/a	criticalFalse
126.075	3.5	controlItem	n/a	n/a	10331	1	3	31	242	3	n/a	controlTrue
130.02	3.5	criticalItem	n/a	n/a	10332	1	3	32	243	3	n/a	criticalFalse
134.064	3.5	genericItem	n/a	n/a	10333	1	3	33	244	3	n/a	n/a
138.021	3.5	genericItem	n/a	n/a	10334	1	3	34	245	3	n/a	n/a
142.057	3.5	genericItem	1	0.382	10335	1	3	35	246	3	1	n/a
146.021	3.5	criticalItem	n/a	n/a	10336	1	3	36	247	3	n/a	criticalFalse
150.031	3.5	genericItem	n/a	n/a	10337	1	3	37	248	3	n/a	n/a
154.02	3.5	genericItem	n/a	n/a	10338	1	3	38	249	3	n/a	n/a
158.072	3.5	genericItem	1	0.676	10339	1	3	39	250	3	1	n/a
162.022	3.5	genericItem	n/a	n/a	10340	1	3	40	251	3	n/a	n/a
166.04	3.5	criticalItem	n/a	n/a	10341	1	3	41	252	3	n/a	criticalTrue
170.021	3.5	controlItem	n/a	n/a	10342	1	3	42	253	3	n/a	controlTrue
174.048	3.5	genericItem	n/a	n/a	10343	1	3	43	254	3	n/a	n/a
178.056	3.5	criticalItem	n/a	n/a	10344	1	3	44	255	3	n/a	criticalFalse
182.086	3.5	controlItem	n/a	n/a	10345	1	3	45	256	3	n/a	controlTrue
186.053	3.5	genericItem	n/a	n/a	10346	1	3	46	257	3	n/a	n/a
190.097	3.5	criticalItem	n/a	n/a	10347	1	3	47	258	3	n/a	criticalTrue
194.078	3.5	controlItem	n/a	n/a	10348	1	3	48	259	3	n/a	controlFoil1
198.021	3.5	genericItem	1	0.68	10349	1	3	49	260	3	1	n/a
202.028	3.5	controlItem	n/a	n/a	10350	1	3	50	261	3	n/a	controlTrue
206.077	n/a	n/a	n/a	n/a	90300	9	3	0	262	3	n/a	n/a
210.02	n/a	n/a	n/a	n/a	81000	8	10	0	263	3	n/a	n/a
214.021	3.5	genericItem	n/a	n/a	11001	1	10	1	264	3	n/a	n/a
218.02	3.5	genericItem	n/a	n/a	11002	1	10	2	265	3	n/a	n/a
222.077	3.5	criticalItem	n/a	n/a	11003	1	10	3	266	3	n/a	criticalTrue
226.02	3.5	genericItem	n/a	n/a	11004	1	10	4	267	3	n/a	n/a
230.022	3.5	criticalItem	n/a	n/a	11005	1	10	5	268	3	n/a	n/a
234.102	3.5	genericItem	n/a	n/a	11006	1	10	6	269	3	n/a	n/a
238.021	3.5	genericItem	n/a	n/a	11007	1	10	7	270	3	n/a	n/a
242.021	3.5	criticalItem	n/a	n/a	11008	1	10	8	271	3	n/a	criticalFalse
246.021	3.5	genericItem	n/a	n/a	11009	1	10	9	272	3	n/a	n/a
250.021	3.5	criticalItem	n/a	n/a	11010	1	10	10	273	3	n/a	criticalTrue
254.021	3.5	genericItem	n/a	n/a	11011	1	10	11	274	3	n/a	n/a
258.021	3.5	genericItem	n/a	n/a	11012	1	10	12	275	3	n/a	n/a
262.021	3.5	genericItem	n/a	n/a	11013	1	10	13	276	3	n/a	n/a
266.055	3.5	genericItem	n/a	n/a	11014	1	10	14	277	3	n/a	n/a
270.071	3.5	criticalItem	n/a	n/a	11015	1	10	15	278	3	n/a	criticalTrue
274.13	3.5	genericItem	n/a	n/a	11016	1	10	16	279	3	n/a	n/a
278.053	3.5	controlItem	n/a	n/a	11017	1	10	17	280	3	n/a	controlFoil1
282.075	3.5	criticalItem	n/a	n/a	11018	1	10	18	281	3	n/a	criticalTrue
286.084	3.5	controlItem	n/a	n/a	11019	1	10	19	282	3	n/a	controlTrue
290.02	3.5	criticalItem	n/a	n/a	11020	1	10	20	283	3	n/a	criticalTrue
294.02	3.5	controlItem	n/a	n/a	11021	1	10	21	284	3	n/a	controlTrue
298.021	3.5	genericItem	1	0.778	11022	1	10	22	285	3	1	n/a
302.024	3.5	criticalItem	n/a	n/a	11023	1	10	23	286	3	n/a	criticalTrue
306.021	3.5	genericItem	1	0.656	11024	1	10	24	287	3	1	n/a
310.095	3.5	genericItem	n/a	n/a	11025	1	10	25	288	3	n/a	n/a
314.021	3.5	criticalItem	n/a	n/a	11026	1	10	26	289	3	n/a	criticalFalse
318.101	3.5	genericItem	n/a	n/a	11027	1	10	27	290	3	n/a	n/a
322.021	3.5	controlItem	n/a	n/a	11028	1	10	28	291	3	n/a	controlTrue
326.021	3.5	controlItem	n/a	n/a	11029	1	10	29	292	3	n/a	controlTrue
330.02	3.5	genericItem	n/a	n/a	11030	1	10	30	293	3	n/a	n/a
334.021	3.5	controlItem	n/a	n/a	11031	1	10	31	294	3	n/a	controlFoil1
338.021	3.5	genericItem	n/a	n/a	11032	1	10	32	295	3	n/a	n/a
342.02	3.5	criticalItem	n/a	n/a	11033	1	10	33	296	3	n/a	criticalTrue
346.02	3.5	genericItem	1	0.704	11034	1	10	34	297	3	1	n/a
350.022	3.5	criticalItem	n/a	n/a	11035	1	10	35	298	3	n/a	criticalFalse
354.02	3.5	genericItem	n/a	n/a	11036	1	10	36	299	3	n/a	n/a
358.021	3.5	controlItem	n/a	n/a	11037	1	10	37	300	3	n/a	controlTrue
362.059	3.5	controlItem	n/a	n/a	11038	1	10	38	301	3	n/a	controlTrue
366.104	3.5	controlItem	n/a	n/a	11039	1	10	39	302	3	n/a	controlFoil1
370.053	3.5	controlItem	n/a	n/a	11040	1	10	40	303	3	n/a	controlFoil1
374.078	3.5	genericItem	n/a	n/a	11041	1	10	41	304	3	n/a	n/a
378.02	3.5	genericItem	n/a	n/a	11042	1	10	42	305	3	n/a	n/a
382.081	3.5	genericItem	n/a	n/a	11043	1	10	43	306	3	n/a	n/a
386.053	3.5	genericItem	n/a	n/a	11044	1	10	44	307	3	n/a	n/a
390.073	3.5	criticalItem	n/a	n/a	11045	1	10	45	308	3	n/a	criticalTrue
394.068	3.5	controlItem	n/a	n/a	11046	1	10	46	309	3	n/a	controlTrue
398.111	3.5	genericItem	n/a	n/a	11047	1	10	47	310	3	n/a	n/a
402.051	3.5	genericItem	1	1.718	11048	1	10	48	311	3	1	n/a
406.06	3.5	controlItem	n/a	n/a	11049	1	10	49	312	3	n/a	controlTrue
410.06	3.5	genericItem	n/a	n/a	11050	1	10	50	313	3	n/a	n/a
414.082	n/a	n/a	n/a	n/a	91000	9	10	0	314	3	n/a	n/a
418.019	n/a	n/a	n/a	n/a	90000	5	0	0	315	3	n/a	n/a
