onset	duration	trial_type	response	response_time	stim_id	stim_events	stim_slides	trial_id	run_id	stim_type	response_type
2.00714	n/a	n/a	n/a	n/a	80200	2	0	445	4	8	n/a
12.0058	3.5	criticalItem	n/a	n/a	10223	2	23	446	4	1	n/a
15.4895	3.0	criticalItem	n/a	n/a	70223	2	23	447	4	0	n/a
18.49	3.0	criticalItem	True	0.471	70223	2	23	448	4	7	criticalTrue
22.0048	3.5	criticalItem	n/a	n/a	10228	2	28	449	4	1	n/a
25.4894	3.0	criticalItem	n/a	n/a	50228	2	28	450	4	0	n/a
28.4876	3.0	criticalItem	Foil	0.876	50228	2	28	451	4	5	criticalFoil
32.0038	3.5	criticalItem	n/a	n/a	10236	2	36	452	4	1	n/a
35.4875	3.0	criticalItem	n/a	n/a	30236	2	36	453	4	0	n/a
38.4869	3.0	criticalItem	False	0.696	30236	2	36	454	4	3	criticalFalse
42.0035	3.5	controlItem	n/a	n/a	10232	2	32	455	4	1	n/a
45.486	3.0	controlItem	n/a	n/a	70232	2	32	456	4	0	n/a
48.4869	3.0	controlItem	Foil1	0.856	70232	2	32	457	4	7	controlFoil1
52.0033	3.5	controlItem	n/a	n/a	10204	2	4	458	4	1	n/a
55.4853	3.0	controlItem	n/a	n/a	50204	2	4	459	4	0	n/a
58.4852	3.0	controlItem	Foil1	0.669	50204	2	4	460	4	5	controlFoil1
62.0016	3.5	controlItem	n/a	n/a	10248	2	48	461	4	1	n/a
65.4853	3.0	controlItem	n/a	n/a	50248	2	48	462	4	0	n/a
68.4851	3.0	controlItem	Foil2	0.64	50248	2	48	463	4	5	controlFoil2
71.9997	3.5	controlItem	n/a	n/a	10217	2	17	464	4	1	n/a
75.4844	3.0	controlItem	n/a	n/a	20217	2	17	465	4	0	n/a
78.483	3.0	controlItem	Foil1	1.638	20217	2	17	466	4	2	controlFoil1
82.0015	3.5	controlItem	n/a	n/a	10235	2	35	467	4	1	n/a
85.4826	3.0	controlItem	n/a	n/a	70235	2	35	468	4	0	n/a
88.4822	3.0	controlItem	Foil2	0.899	70235	2	35	469	4	7	controlFoil2
92.0148	3.5	criticalItem	n/a	n/a	10234	2	34	470	4	1	n/a
95.4978	3.0	criticalItem	n/a	n/a	40234	2	34	471	4	0	n/a
98.4977	3.0	criticalItem	Foil	1.056	40234	2	34	472	4	4	criticalFoil
102.013	3.5	criticalItem	n/a	n/a	10225	2	25	473	4	1	n/a
105.497	3.0	criticalItem	n/a	n/a	30225	2	25	474	4	0	n/a
108.496	3.0	criticalItem	False	0.623	30225	2	25	475	4	3	criticalFalse
112.013	3.5	controlItem	n/a	n/a	10246	2	46	476	4	1	n/a
115.496	3.0	controlItem	n/a	n/a	60246	2	46	477	4	0	n/a
118.496	3.0	controlItem	Foil1	0.722	60246	2	46	478	4	6	controlFoil1
122.012	3.5	criticalItem	n/a	n/a	10241	2	41	479	4	1	n/a
125.496	3.0	criticalItem	n/a	n/a	40241	2	41	480	4	0	n/a
128.495	3.0	criticalItem	True	0.573	40241	2	41	481	4	4	criticalTrue
132.01	3.5	controlItem	n/a	n/a	10207	2	7	482	4	1	n/a
135.494	3.0	controlItem	n/a	n/a	70207	2	7	483	4	0	n/a
138.494	3.0	controlItem	True	0.751	70207	2	7	484	4	7	controlTrue
142.009	3.5	criticalItem	n/a	n/a	10214	2	14	485	4	1	n/a
145.492	3.0	criticalItem	n/a	n/a	50214	2	14	486	4	0	n/a
148.494	3.0	criticalItem	True	0.569	50214	2	14	487	4	5	criticalTrue
152.008	3.5	controlItem	n/a	n/a	10242	2	42	488	4	1	n/a
155.492	3.0	controlItem	n/a	n/a	30242	2	42	489	4	0	n/a
158.492	3.0	controlItem	Foil2	0.531	30242	2	42	490	4	3	controlFoil2
162.008	3.5	controlItem	n/a	n/a	10222	2	22	491	4	1	n/a
165.492	3.0	controlItem	n/a	n/a	30222	2	22	492	4	0	n/a
168.492	3.0	controlItem	Foil1	0.745	30222	2	22	493	4	3	controlFoil1
172.006	3.5	criticalItem	n/a	n/a	10245	2	45	494	4	1	n/a
175.49	3.0	criticalItem	n/a	n/a	40245	2	45	495	4	0	n/a
178.49	3.0	criticalItem	False	0.739	40245	2	45	496	4	4	criticalFalse
182.005	3.5	controlItem	n/a	n/a	10230	2	30	497	4	1	n/a
185.489	3.0	controlItem	n/a	n/a	50230	2	30	498	4	0	n/a
188.489	3.0	controlItem	True	0.887	50230	2	30	499	4	5	controlTrue
192.004	3.5	criticalItem	n/a	n/a	10238	2	38	500	4	1	n/a
195.488	3.0	criticalItem	n/a	n/a	30238	2	38	501	4	0	n/a
198.488	3.0	criticalItem	True	0.485	30238	2	38	502	4	3	criticalTrue
202.003	3.5	criticalItem	n/a	n/a	10231	2	31	503	4	1	n/a
205.487	3.0	criticalItem	n/a	n/a	30231	2	31	504	4	0	n/a
208.487	3.0	criticalItem	False	0.512	30231	2	31	505	4	3	criticalFalse
212.002	3.5	controlItem	n/a	n/a	10237	2	37	506	4	1	n/a
215.487	3.0	controlItem	n/a	n/a	30237	2	37	507	4	0	n/a
218.485	3.0	controlItem	Foil1	0.615	30237	2	37	508	4	3	controlFoil1
222.002	3.5	criticalItem	n/a	n/a	10249	2	49	509	4	1	n/a
225.486	3.0	criticalItem	n/a	n/a	70249	2	49	510	4	0	n/a
228.485	3.0	criticalItem	True	0.795	70249	2	49	511	4	7	criticalTrue
232	3.5	criticalItem	n/a	n/a	10219	2	19	512	4	1	n/a
235.485	3.0	criticalItem	n/a	n/a	60219	2	19	513	4	0	n/a
238.484	3.0	criticalItem	False	0.674	60219	2	19	514	4	6	criticalFalse
242	3.5	controlItem	n/a	n/a	10205	2	5	515	4	1	n/a
245.483	3.0	controlItem	n/a	n/a	60205	2	5	516	4	0	n/a
248.483	3.0	controlItem	True	0.567	60205	2	5	517	4	6	controlTrue
252	n/a	n/a	n/a	n/a	90200	2	0	518	4	9	n/a
256	n/a	n/a	n/a	n/a	80700	7	0	519	4	8	n/a
266.013	3.5	controlItem	n/a	n/a	10734	7	34	520	4	1	n/a
269.497	3.0	controlItem	n/a	n/a	20734	7	34	521	4	0	n/a
272.496	3.0	controlItem	Foil1	0.941	20734	7	34	522	4	2	controlFoil1
276.014	3.5	criticalItem	n/a	n/a	10726	7	26	523	4	1	n/a
279.497	3.0	criticalItem	n/a	n/a	50726	7	26	524	4	0	n/a
282.496	3.0	criticalItem	True	0.707	50726	7	26	525	4	5	criticalTrue
286.011	3.5	criticalItem	n/a	n/a	10704	7	4	526	4	1	n/a
289.495	3.0	criticalItem	n/a	n/a	50704	7	4	527	4	0	n/a
292.496	3.0	criticalItem	False	0.641	50704	7	4	528	4	5	criticalFalse
296.01	3.5	controlItem	n/a	n/a	10705	7	5	529	4	1	n/a
299.494	3.0	controlItem	n/a	n/a	40705	7	5	530	4	0	n/a
302.495	3.0	controlItem	True	0.694	40705	7	5	531	4	4	controlTrue
306.01	3.5	criticalItem	n/a	n/a	10712	7	12	532	4	1	n/a
309.493	3.0	criticalItem	n/a	n/a	40712	7	12	533	4	0	n/a
312.493	3.0	criticalItem	True	0.533	40712	7	12	534	4	4	criticalTrue
316.009	3.5	criticalItem	n/a	n/a	10721	7	21	535	4	1	n/a
319.493	3.0	criticalItem	n/a	n/a	70721	7	21	536	4	0	n/a
322.492	3.0	criticalItem	Foil	0.731	70721	7	21	537	4	7	criticalFoil
326.008	3.5	criticalItem	n/a	n/a	10729	7	29	538	4	1	n/a
329.492	3.0	criticalItem	n/a	n/a	50729	7	29	539	4	0	n/a
332.492	3.0	criticalItem	False	0.818	50729	7	29	540	4	5	criticalFalse
336.007	3.5	controlItem	n/a	n/a	10718	7	18	541	4	1	n/a
339.49	3.0	controlItem	n/a	n/a	50718	7	18	542	4	0	n/a
342.49	3.0	controlItem	Foil2	1.012	50718	7	18	543	4	5	controlFoil2
346.006	3.5	criticalItem	n/a	n/a	10739	7	39	544	4	1	n/a
349.489	3.0	criticalItem	n/a	n/a	60739	7	39	545	4	0	n/a
352.489	3.0	criticalItem	False	0.549	60739	7	39	546	4	6	criticalFalse
356.006	3.5	controlItem	n/a	n/a	10728	7	28	547	4	1	n/a
359.488	3.0	controlItem	n/a	n/a	60728	7	28	548	4	0	n/a
362.488	3.0	controlItem	Foil2	0.959	60728	7	28	549	4	6	controlFoil2
366.004	3.5	controlItem	n/a	n/a	10703	7	3	550	4	1	n/a
369.487	3.0	controlItem	n/a	n/a	70703	7	3	551	4	0	n/a
372.487	3.0	controlItem	Foil1	0.789	70703	7	3	552	4	7	controlFoil1
376.002	3.5	criticalItem	n/a	n/a	10735	7	35	553	4	1	n/a
379.486	3.0	criticalItem	n/a	n/a	20735	7	35	554	4	0	n/a
382.485	3.0	criticalItem	True	0.774	20735	7	35	555	4	2	criticalTrue
386.002	3.5	controlItem	n/a	n/a	10711	7	11	556	4	1	n/a
389.485	3.0	controlItem	n/a	n/a	50711	7	11	557	4	0	n/a
392.486	3.0	controlItem	Foil2	0.786	50711	7	11	558	4	5	controlFoil2
396.001	3.5	controlItem	n/a	n/a	10707	7	7	559	4	1	n/a
399.485	3.0	controlItem	n/a	n/a	40707	7	7	560	4	0	n/a
402.485	3.0	controlItem	Foil2	0.73	40707	7	7	561	4	4	controlFoil2
406	3.5	criticalItem	n/a	n/a	10744	7	44	562	4	1	n/a
409.483	3.0	criticalItem	n/a	n/a	20744	7	44	563	4	0	n/a
412.483	3.0	criticalItem	False	0.704	20744	7	44	564	4	2	criticalFalse
416	3.5	criticalItem	n/a	n/a	10749	7	49	565	4	1	n/a
419.482	3.0	criticalItem	n/a	n/a	20749	7	49	566	4	0	n/a
422.482	3.0	criticalItem	False	1.123	20749	7	49	567	4	2	criticalFalse
426.015	3.5	criticalItem	n/a	n/a	10709	7	9	568	4	1	n/a
429.499	3.0	criticalItem	n/a	n/a	40709	7	9	569	4	0	n/a
432.499	3.0	criticalItem	False	0.773	40709	7	9	570	4	4	criticalFalse
436.014	3.5	criticalItem	n/a	n/a	10719	7	19	571	4	1	n/a
439.497	3.0	criticalItem	n/a	n/a	20719	7	19	572	4	0	n/a
442.497	3.0	criticalItem	False	0.557	20719	7	19	573	4	2	criticalFalse
446.013	3.5	controlItem	n/a	n/a	10708	7	8	574	4	1	n/a
449.496	3.0	controlItem	n/a	n/a	70708	7	8	575	4	0	n/a
452.497	3.0	controlItem	Foil1	1.222	70708	7	8	576	4	7	controlFoil1
456.011	3.5	criticalItem	n/a	n/a	10746	7	46	577	4	1	n/a
459.495	3.0	criticalItem	n/a	n/a	70746	7	46	578	4	0	n/a
462.494	3.0	criticalItem	True	1.436	70746	7	46	579	4	7	criticalTrue
466.01	3.5	controlItem	n/a	n/a	10750	7	50	580	4	1	n/a
469.494	3.0	controlItem	n/a	n/a	20750	7	50	581	4	0	n/a
472.494	3.0	controlItem	True	0.626	20750	7	50	582	4	2	controlTrue
476.011	3.5	controlItem	n/a	n/a	10720	7	20	583	4	1	n/a
479.494	3.0	controlItem	n/a	n/a	30720	7	20	584	4	0	n/a
482.493	3.0	controlItem	True	0.813	30720	7	20	585	4	3	controlTrue
486.009	3.5	controlItem	n/a	n/a	10740	7	40	586	4	1	n/a
489.493	3.0	controlItem	n/a	n/a	20740	7	40	587	4	0	n/a
492.493	3.0	controlItem	True	1.093	20740	7	40	588	4	2	controlTrue
496.007	3.5	controlItem	n/a	n/a	10714	7	14	589	4	1	n/a
499.492	3.0	controlItem	n/a	n/a	20714	7	14	590	4	0	n/a
502.49	3.0	controlItem	True	1.279	20714	7	14	591	4	2	controlTrue
506.006	n/a	n/a	n/a	n/a	90700	7	0	592	4	9	n/a
