onset	duration	trial_type	response	response_time	stim_id	stim_version	stim_events	stim_slides	trial_id	run_id	stim_redcross	subsequent_response_type
2.0451	n/a	n/a	n/a	n/a	80100	8	1	0	106	2	n/a	n/a
6.0273	3.5	genericItem	n/a	n/a	10101	1	1	1	107	2	n/a	n/a
10.0278	3.5	genericItem	n/a	n/a	10102	1	1	2	108	2	n/a	n/a
14.0286	3.5	genericItem	n/a	n/a	10103	1	1	3	109	2	n/a	n/a
18.0277	3.5	controlItem	n/a	n/a	10104	1	1	4	110	2	n/a	controlFoil1
22.027	3.5	genericItem	n/a	n/a	10105	1	1	5	111	2	n/a	n/a
26.0269	3.5	genericItem	n/a	n/a	10106	1	1	6	112	2	n/a	n/a
30.028	3.5	controlItem	n/a	n/a	10107	1	1	7	113	2	n/a	controlTrue
34.0268	3.5	genericItem	n/a	n/a	10108	1	1	8	114	2	n/a	n/a
38.0277	3.5	genericItem	n/a	n/a	10109	1	1	9	115	2	n/a	n/a
42.0254	3.5	criticalItem	n/a	n/a	10110	1	1	10	116	2	n/a	criticalTrue
46.028	3.5	genericItem	n/a	n/a	10111	1	1	11	117	2	n/a	n/a
50.0268	3.5	criticalItem	n/a	n/a	10112	1	1	12	118	2	n/a	criticalFoil
54.0278	3.5	genericItem	1	0.35	10113	1	1	13	119	2	1	n/a
58.0279	3.5	criticalItem	n/a	n/a	10114	1	1	14	120	2	n/a	criticalFalse
62.0282	3.5	genericItem	n/a	n/a	10115	1	1	15	121	2	n/a	n/a
66.0284	3.5	controlItem	n/a	n/a	10116	1	1	16	122	2	n/a	controlTrue
70.0255	3.5	criticalItem	n/a	n/a	10117	1	1	17	123	2	n/a	criticalTrue
74.0273	3.5	controlItem	n/a	n/a	10118	1	1	18	124	2	n/a	controlTrue
78.0279	3.5	criticalItem	n/a	n/a	10119	1	1	19	125	2	n/a	criticalFalse
82.0283	3.5	genericItem	1	0.056	10120	1	1	20	126	2	1	n/a
86.0277	3.5	controlItem	n/a	n/a	10121	1	1	21	127	2	n/a	controlFoil1
90.0283	3.5	criticalItem	n/a	n/a	10122	1	1	22	128	2	n/a	n/a
94.0284	3.5	controlItem	n/a	n/a	10123	1	1	23	129	2	n/a	controlFoil1
98.0282	3.5	controlItem	n/a	n/a	10124	1	1	24	130	2	n/a	controlFoil1
102.027	3.5	controlItem	n/a	n/a	10125	1	1	25	131	2	n/a	controlTrue
106.027	3.5	criticalItem	n/a	n/a	10126	1	1	26	132	2	n/a	criticalFoil
110.029	3.5	genericItem	n/a	n/a	10127	1	1	27	133	2	n/a	n/a
114.027	3.5	criticalItem	n/a	n/a	10128	1	1	28	134	2	n/a	criticalFalse
118.026	3.5	genericItem	n/a	n/a	10129	1	1	29	135	2	n/a	n/a
122.029	3.5	genericItem	n/a	n/a	10130	1	1	30	136	2	n/a	n/a
126.029	3.5	criticalItem	n/a	n/a	10131	1	1	31	137	2	n/a	criticalFalse
130.027	3.5	controlItem	n/a	n/a	10132	1	1	32	138	2	n/a	controlTrue
134.028	3.5	genericItem	1	0.099	10133	1	1	33	139	2	1	n/a
138.026	3.5	genericItem	1	0.208	10134	1	1	34	140	2	1	n/a
142.029	3.5	genericItem	n/a	n/a	10135	1	1	35	141	2	n/a	n/a
146.029	3.5	criticalItem	n/a	n/a	10136	1	1	36	142	2	n/a	criticalFalse
150.028	3.5	genericItem	n/a	n/a	10137	1	1	37	143	2	n/a	n/a
154.028	3.5	genericItem	n/a	n/a	10138	1	1	38	144	2	n/a	n/a
158.027	3.5	genericItem	n/a	n/a	10139	1	1	39	145	2	n/a	n/a
162.027	3.5	controlItem	n/a	n/a	10140	1	1	40	146	2	n/a	controlTrue
166.026	3.5	criticalItem	n/a	n/a	10141	1	1	41	147	2	n/a	criticalTrue
170.026	3.5	genericItem	n/a	n/a	10142	1	1	42	148	2	n/a	n/a
174.026	3.5	genericItem	n/a	n/a	10143	1	1	43	149	2	n/a	n/a
178.027	3.5	genericItem	n/a	n/a	10144	1	1	44	150	2	n/a	n/a
182.025	3.5	genericItem	n/a	n/a	10145	1	1	45	151	2	n/a	n/a
186.026	3.5	controlItem	n/a	n/a	10146	1	1	46	152	2	n/a	controlTrue
190.027	3.5	genericItem	n/a	n/a	10147	1	1	47	153	2	n/a	n/a
194.026	3.5	genericItem	n/a	n/a	10148	1	1	48	154	2	n/a	n/a
198.025	3.5	controlItem	n/a	n/a	10149	1	1	49	155	2	n/a	controlFoil1
202.028	3.5	criticalItem	n/a	n/a	10150	1	1	50	156	2	n/a	criticalFalse
206.02	n/a	n/a	n/a	n/a	90100	9	1	0	157	2	n/a	n/a
210.02	n/a	n/a	n/a	n/a	81000	8	10	0	158	2	n/a	n/a
214.023	3.5	genericItem	n/a	n/a	11001	1	10	1	159	2	n/a	n/a
218.022	3.5	genericItem	n/a	n/a	11002	1	10	2	160	2	n/a	n/a
222.083	3.5	criticalItem	n/a	n/a	11003	1	10	3	161	2	n/a	criticalTrue
226.022	3.5	genericItem	n/a	n/a	11004	1	10	4	162	2	n/a	n/a
230.087	3.5	criticalItem	n/a	n/a	11005	1	10	5	163	2	n/a	criticalTrue
234.022	3.5	genericItem	1	0.192	11006	1	10	6	164	2	1	n/a
238.022	3.5	genericItem	n/a	n/a	11007	1	10	7	165	2	n/a	n/a
242.085	3.5	criticalItem	n/a	n/a	11008	1	10	8	166	2	n/a	criticalFalse
246.023	3.5	genericItem	n/a	n/a	11009	1	10	9	167	2	n/a	n/a
250.064	3.5	criticalItem	n/a	n/a	11010	1	10	10	168	2	n/a	criticalTrue
254.024	3.5	genericItem	n/a	n/a	11011	1	10	11	169	2	n/a	n/a
258.024	3.5	genericItem	n/a	n/a	11012	1	10	12	170	2	n/a	n/a
262.024	3.5	genericItem	n/a	n/a	11013	1	10	13	171	2	n/a	n/a
266.023	3.5	genericItem	n/a	n/a	11014	1	10	14	172	2	n/a	n/a
270.084	3.5	criticalItem	n/a	n/a	11015	1	10	15	173	2	n/a	criticalFalse
274.024	3.5	genericItem	n/a	n/a	11016	1	10	16	174	2	n/a	n/a
278.026	3.5	controlItem	n/a	n/a	11017	1	10	17	175	2	n/a	controlFoil2
282.095	3.5	criticalItem	n/a	n/a	11018	1	10	18	176	2	n/a	criticalTrue
286.025	3.5	controlItem	n/a	n/a	11019	1	10	19	177	2	n/a	controlFoil2
290.046	3.5	criticalItem	n/a	n/a	11020	1	10	20	178	2	n/a	criticalFalse
294.026	3.5	controlItem	n/a	n/a	11021	1	10	21	179	2	n/a	controlTrue
298.026	3.5	genericItem	n/a	n/a	11022	1	10	22	180	2	n/a	n/a
302.089	3.5	criticalItem	n/a	n/a	11023	1	10	23	181	2	n/a	criticalTrue
306.023	3.5	genericItem	n/a	n/a	11024	1	10	24	182	2	n/a	n/a
310.023	3.5	genericItem	n/a	n/a	11025	1	10	25	183	2	n/a	n/a
314.093	3.5	criticalItem	n/a	n/a	11026	1	10	26	184	2	n/a	criticalFoil
318.024	3.5	genericItem	n/a	n/a	11027	1	10	27	185	2	n/a	n/a
322.023	3.5	controlItem	n/a	n/a	11028	1	10	28	186	2	n/a	controlFoil2
326.021	3.5	controlItem	n/a	n/a	11029	1	10	29	187	2	n/a	controlFoil2
330.024	3.5	genericItem	1	0.188	11030	1	10	30	188	2	1	n/a
334.022	3.5	controlItem	n/a	n/a	11031	1	10	31	189	2	n/a	controlFoil2
338.024	3.5	genericItem	n/a	n/a	11032	1	10	32	190	2	n/a	n/a
342.095	3.5	criticalItem	n/a	n/a	11033	1	10	33	191	2	n/a	criticalFoil
346.023	3.5	genericItem	n/a	n/a	11034	1	10	34	192	2	n/a	n/a
350.104	3.5	criticalItem	n/a	n/a	11035	1	10	35	193	2	n/a	criticalTrue
354.023	3.5	genericItem	1	0.15	11036	1	10	36	194	2	1	n/a
358.024	3.5	controlItem	n/a	n/a	11037	1	10	37	195	2	n/a	controlTrue
362.025	3.5	controlItem	n/a	n/a	11038	1	10	38	196	2	n/a	controlFoil2
366.024	3.5	controlItem	n/a	n/a	11039	1	10	39	197	2	n/a	controlTrue
370.025	3.5	controlItem	n/a	n/a	11040	1	10	40	198	2	n/a	controlFoil1
374.024	3.5	genericItem	n/a	n/a	11041	1	10	41	199	2	n/a	n/a
378.024	3.5	genericItem	n/a	n/a	11042	1	10	42	200	2	n/a	n/a
382.024	3.5	genericItem	n/a	n/a	11043	1	10	43	201	2	n/a	n/a
386.024	3.5	genericItem	n/a	n/a	11044	1	10	44	202	2	n/a	n/a
390.026	3.5	criticalItem	n/a	n/a	11045	1	10	45	203	2	n/a	criticalFalse
394.026	3.5	controlItem	n/a	n/a	11046	1	10	46	204	2	n/a	controlTrue
398.025	3.5	genericItem	n/a	n/a	11047	1	10	47	205	2	n/a	n/a
402.025	3.5	genericItem	1	0.102	11048	1	10	48	206	2	1	n/a
406.023	3.5	controlItem	n/a	n/a	11049	1	10	49	207	2	n/a	controlTrue
410.025	3.5	genericItem	n/a	n/a	11050	1	10	50	208	2	n/a	n/a
414.021	n/a	n/a	n/a	n/a	91000	9	10	0	209	2	n/a	n/a
418.021	n/a	n/a	n/a	n/a	90000	9	0	0	210	2	n/a	n/a
