onset	duration	trial_type	response	response_time	stim_id	stim_events	stim_slides	trial_id	run_id	stim_type	response_type
2.008	n/a	n/a	n/a	n/a	81000	10	0	149	2	8	n/a
12.0071	3.5	criticalItem	n/a	n/a	11035	10	35	150	2	1	n/a
15.4907	3.0	criticalItem	n/a	n/a	51035	10	35	151	2	0	n/a
18.491	3.0	criticalItem	True	0.748	51035	10	35	152	2	5	criticalTrue
22.006	3.5	controlItem	n/a	n/a	11021	10	21	153	2	1	n/a
25.4904	3.0	controlItem	n/a	n/a	41021	10	21	154	2	0	n/a
28.4901	3.0	controlItem	True	0.461	41021	10	21	155	2	4	controlTrue
32.0048	3.5	controlItem	n/a	n/a	11049	10	49	156	2	1	n/a
35.4886	3.0	controlItem	n/a	n/a	71049	10	49	157	2	0	n/a
38.4891	3.0	controlItem	True	0.424	71049	10	49	158	2	7	controlTrue
42.0039	3.5	criticalItem	n/a	n/a	11026	10	26	159	2	1	n/a
45.4888	3.0	criticalItem	n/a	n/a	41026	10	26	160	2	0	n/a
48.4881	3.0	criticalItem	False	0.278	41026	10	26	161	2	4	criticalFalse
52.0036	3.5	controlItem	n/a	n/a	11038	10	38	162	2	1	n/a
55.4866	3.0	controlItem	n/a	n/a	31038	10	38	163	2	0	n/a
58.4862	3.0	controlItem	Foil2	0.659	31038	10	38	164	2	3	controlFoil2
62.0024	3.5	criticalItem	n/a	n/a	11010	10	10	165	2	1	n/a
65.4853	3.0	criticalItem	n/a	n/a	21010	10	10	166	2	0	n/a
68.4853	3.0	criticalItem	False	0.42	21010	10	10	167	2	2	criticalFalse
72.0014	3.5	controlItem	n/a	n/a	11039	10	39	168	2	1	n/a
75.4847	3.0	controlItem	n/a	n/a	21039	10	39	169	2	0	n/a
78.484	3.0	controlItem	True	0.412	21039	10	39	170	2	2	controlTrue
81.9997	3.5	criticalItem	n/a	n/a	11023	10	23	171	2	1	n/a
85.4837	3.0	criticalItem	n/a	n/a	41023	10	23	172	2	0	n/a
88.4839	3.0	criticalItem	True	0.437	41023	10	23	173	2	4	criticalTrue
91.9991	3.5	criticalItem	n/a	n/a	11003	10	3	174	2	1	n/a
95.4822	3.0	criticalItem	ForbiddenKey	1.531	61003	10	3	175	2	0	n/a
98.4831	3.0	criticalItem	Foil	0.04	61003	10	3	176	2	6	criticalFoil
102.015	3.5	criticalItem	n/a	n/a	11008	10	8	177	2	1	n/a
105.499	3.0	criticalItem	n/a	n/a	51008	10	8	178	2	0	n/a
108.499	3.0	criticalItem	True	0.056	51008	10	8	179	2	5	criticalTrue
112.013	3.5	controlItem	n/a	n/a	11046	10	46	180	2	1	n/a
115.498	3.0	controlItem	n/a	n/a	51046	10	46	181	2	0	n/a
118.497	3.0	controlItem	True	0.677	51046	10	46	182	2	5	controlTrue
122.014	3.5	controlItem	n/a	n/a	11019	10	19	183	2	1	n/a
125.496	3.0	controlItem	ForbiddenKey	1.568	51019	10	19	184	2	0	n/a
128.496	3.0	controlItem	Foil2	0.812	51019	10	19	185	2	5	controlFoil2
132.011	3.5	controlItem	n/a	n/a	11029	10	29	186	2	1	n/a
135.495	3.0	controlItem	n/a	n/a	61029	10	29	187	2	0	n/a
138.495	3.0	controlItem	True	1.379	61029	10	29	188	2	6	controlTrue
142.011	3.5	controlItem	n/a	n/a	11017	10	17	189	2	1	n/a
145.494	3.0	controlItem	n/a	n/a	41017	10	17	190	2	0	n/a
148.494	3.0	controlItem	Foil1	0.252	41017	10	17	191	2	4	controlFoil1
152.011	3.5	controlItem	n/a	n/a	11037	10	37	192	2	1	n/a
155.493	3.0	controlItem	n/a	n/a	71037	10	37	193	2	0	n/a
158.494	3.0	controlItem	True	1.364	71037	10	37	194	2	7	controlTrue
162.009	3.5	criticalItem	n/a	n/a	11045	10	45	195	2	1	n/a
165.492	3.0	criticalItem	n/a	n/a	61045	10	45	196	2	0	n/a
168.492	3.0	criticalItem	False	0.422	61045	10	45	197	2	6	criticalFalse
172.007	3.5	criticalItem	n/a	n/a	11005	10	5	198	2	1	n/a
175.492	3.0	criticalItem	n/a	n/a	41005	10	5	199	2	0	n/a
178.491	3.0	criticalItem	Foil	0.671	41005	10	5	200	2	4	criticalFoil
182.008	3.5	controlItem	n/a	n/a	11031	10	31	201	2	1	n/a
185.491	3.0	controlItem	n/a	n/a	41031	10	31	202	2	0	n/a
188.49	3.0	controlItem	True	0.425	41031	10	31	203	2	4	controlTrue
192.005	3.5	criticalItem	n/a	n/a	11018	10	18	204	2	1	n/a
195.488	3.0	criticalItem	n/a	n/a	51018	10	18	205	2	0	n/a
198.489	3.0	criticalItem	True	0.598	51018	10	18	206	2	5	criticalTrue
202.005	3.5	criticalItem	n/a	n/a	11015	10	15	207	2	1	n/a
205.487	3.0	criticalItem	n/a	n/a	71015	10	15	208	2	0	n/a
208.488	3.0	criticalItem	True	1.36	71015	10	15	209	2	7	criticalTrue
212.004	3.5	controlItem	n/a	n/a	11040	10	40	210	2	1	n/a
215.487	3.0	controlItem	n/a	n/a	31040	10	40	211	2	0	n/a
218.486	3.0	controlItem	True	0.61	31040	10	40	212	2	3	controlTrue
222.002	3.5	criticalItem	n/a	n/a	11033	10	33	213	2	1	n/a
225.485	3.0	criticalItem	n/a	n/a	71033	10	33	214	2	0	n/a
228.486	3.0	criticalItem	Foil	0.85	71033	10	33	215	2	7	criticalFoil
232.001	3.5	controlItem	n/a	n/a	11028	10	28	216	2	1	n/a
235.484	3.0	controlItem	n/a	n/a	51028	10	28	217	2	0	n/a
238.485	3.0	controlItem	True	0.581	51028	10	28	218	2	5	controlTrue
242.002	3.5	criticalItem	n/a	n/a	11020	10	20	219	2	1	n/a
245.484	3.0	criticalItem	n/a	n/a	41020	10	20	220	2	0	n/a
248.483	3.0	criticalItem	True	1.109	41020	10	20	221	2	4	criticalTrue
251.999	n/a	n/a	n/a	n/a	91000	10	0	222	2	9	n/a
256.016	n/a	n/a	n/a	n/a	80500	5	0	223	2	8	n/a
266.014	3.5	controlItem	n/a	n/a	10517	5	17	224	2	1	n/a
269.498	3.0	controlItem	n/a	n/a	60517	5	17	225	2	0	n/a
272.497	3.0	controlItem	Foil1	0.502	60517	5	17	226	2	6	controlFoil1
276.015	3.5	controlItem	n/a	n/a	10542	5	42	227	2	1	n/a
279.498	3.0	controlItem	n/a	n/a	50542	5	42	228	2	0	n/a
282.497	3.0	controlItem	True	0.642	50542	5	42	229	2	5	controlTrue
286.013	3.5	controlItem	n/a	n/a	10546	5	46	230	2	1	n/a
289.497	3.0	controlItem	n/a	n/a	30546	5	46	231	2	0	n/a
292.496	3.0	controlItem	True	0.815	30546	5	46	232	2	3	controlTrue
296.012	3.5	criticalItem	n/a	n/a	10550	5	50	233	2	1	n/a
299.496	3.0	criticalItem	n/a	n/a	50550	5	50	234	2	0	n/a
302.496	3.0	criticalItem	True	0.775	50550	5	50	235	2	5	criticalTrue
306.011	3.5	controlItem	n/a	n/a	10527	5	27	236	2	1	n/a
309.494	3.0	controlItem	n/a	n/a	40527	5	27	237	2	0	n/a
312.494	3.0	controlItem	True	0.582	40527	5	27	238	2	4	controlTrue
316.009	3.5	controlItem	n/a	n/a	10524	5	24	239	2	1	n/a
319.493	3.0	controlItem	n/a	n/a	50524	5	24	240	2	0	n/a
322.493	3.0	controlItem	True	1.163	50524	5	24	241	2	5	controlTrue
326.009	3.5	criticalItem	n/a	n/a	10526	5	26	242	2	1	n/a
329.493	3.0	criticalItem	n/a	n/a	20526	5	26	243	2	0	n/a
332.492	3.0	criticalItem	False	0.855	20526	5	26	244	2	2	criticalFalse
336.009	3.5	criticalItem	n/a	n/a	10521	5	21	245	2	1	n/a
339.491	3.0	criticalItem	n/a	n/a	50521	5	21	246	2	0	n/a
342.492	3.0	criticalItem	True	0.875	50521	5	21	247	2	5	criticalTrue
346.007	3.5	controlItem	n/a	n/a	10522	5	22	248	2	1	n/a
349.49	3.0	controlItem	n/a	n/a	60522	5	22	249	2	0	n/a
352.49	3.0	controlItem	True	0.924	60522	5	22	250	2	6	controlTrue
356.006	3.5	controlItem	n/a	n/a	10515	5	15	251	2	1	n/a
359.49	3.0	controlItem	n/a	n/a	60515	5	15	252	2	0	n/a
362.488	3.0	controlItem	Foil2	0.595	60515	5	15	253	2	6	controlFoil2
366.006	3.5	controlItem	n/a	n/a	10549	5	49	254	2	1	n/a
369.489	3.0	controlItem	n/a	n/a	20549	5	49	255	2	0	n/a
372.489	3.0	controlItem	True	0.797	20549	5	49	256	2	2	controlTrue
376.005	3.5	controlItem	n/a	n/a	10514	5	14	257	2	1	n/a
379.487	3.0	controlItem	n/a	n/a	20514	5	14	258	2	0	n/a
382.488	3.0	controlItem	True	0.909	20514	5	14	259	2	2	controlTrue
386.003	3.5	criticalItem	n/a	n/a	10541	5	41	260	2	1	n/a
389.487	3.0	criticalItem	n/a	n/a	50541	5	41	261	2	0	n/a
392.487	3.0	criticalItem	Foil	0.849	50541	5	41	262	2	5	criticalFoil
396.001	3.5	criticalItem	n/a	n/a	10547	5	47	263	2	1	n/a
399.485	3.0	criticalItem	n/a	n/a	40547	5	47	264	2	0	n/a
402.485	3.0	criticalItem	False	0.873	40547	5	47	265	2	4	criticalFalse
406.001	3.5	criticalItem	n/a	n/a	10531	5	31	266	2	1	n/a
409.484	3.0	criticalItem	n/a	n/a	30531	5	31	267	2	0	n/a
412.484	3.0	criticalItem	False	0.576	30531	5	31	268	2	3	criticalFalse
415.999	3.5	criticalItem	n/a	n/a	10503	5	3	269	2	1	n/a
419.483	3.0	criticalItem	n/a	n/a	30503	5	3	270	2	0	n/a
422.482	3.0	criticalItem	False	0.532	30503	5	3	271	2	3	criticalFalse
426.016	3.5	criticalItem	n/a	n/a	10519	5	19	272	2	1	n/a
429.498	3.0	criticalItem	n/a	n/a	60519	5	19	273	2	0	n/a
432.498	3.0	criticalItem	True	0.585	60519	5	19	274	2	6	criticalTrue
436.014	3.5	controlItem	n/a	n/a	10532	5	32	275	2	1	n/a
439.498	3.0	controlItem	n/a	n/a	40532	5	32	276	2	0	n/a
442.498	3.0	controlItem	True	0.558	40532	5	32	277	2	4	controlTrue
446.013	3.5	criticalItem	n/a	n/a	10505	5	5	278	2	1	n/a
449.496	3.0	criticalItem	n/a	n/a	30505	5	5	279	2	0	n/a
452.496	3.0	criticalItem	False	1.063	30505	5	5	280	2	3	criticalFalse
456.012	3.5	criticalItem	n/a	n/a	10539	5	39	281	2	1	n/a
459.495	3.0	criticalItem	n/a	n/a	40539	5	39	282	2	0	n/a
462.495	3.0	criticalItem	Foil	0.676	40539	5	39	283	2	4	criticalFoil
466.012	3.5	criticalItem	n/a	n/a	10523	5	23	284	2	1	n/a
469.495	3.0	criticalItem	n/a	n/a	60523	5	23	285	2	0	n/a
472.494	3.0	criticalItem	True	0.852	60523	5	23	286	2	6	criticalTrue
476.011	3.5	criticalItem	n/a	n/a	10516	5	16	287	2	1	n/a
479.493	3.0	criticalItem	n/a	n/a	60516	5	16	288	2	0	n/a
482.493	3.0	criticalItem	True	1.018	60516	5	16	289	2	6	criticalTrue
486.01	3.5	controlItem	n/a	n/a	10518	5	18	290	2	1	n/a
489.493	3.0	controlItem	n/a	n/a	40518	5	18	291	2	0	n/a
492.493	3.0	controlItem	True	0.879	40518	5	18	292	2	4	controlTrue
496.008	3.5	controlItem	n/a	n/a	10525	5	25	293	2	1	n/a
499.492	3.0	controlItem	n/a	n/a	40525	5	25	294	2	0	n/a
502.491	3.0	controlItem	True	0.543	40525	5	25	295	2	4	controlTrue
506.007	n/a	n/a	n/a	n/a	90500	5	0	296	2	9	n/a
