onset	duration	trial_type	response	response_time	stim_id	stim_events	stim_slides	trial_id	run_id	stim_type	response_type
2.00716	n/a	n/a	n/a	n/a	80100	1	0	1	1	8	n/a
12.0061	3.5	controlItem	n/a	n/a	10116	1	16	2	1	1	n/a
15.4899	3.0	controlItem	n/a	n/a	40116	1	16	3	1	0	n/a
18.4887	3.0	controlItem	True	0.633	40116	1	16	4	1	4	controlTrue
22.0061	3.5	criticalItem	n/a	n/a	10114	1	14	5	1	1	n/a
25.4882	3.0	criticalItem	n/a	n/a	20114	1	14	6	1	0	n/a
28.4886	3.0	criticalItem	True	0.163	20114	1	14	7	1	2	criticalTrue
32.0047	3.5	controlItem	n/a	n/a	10125	1	25	8	1	1	n/a
35.4873	3.0	controlItem	n/a	n/a	70125	1	25	9	1	0	n/a
38.4867	3.0	controlItem	True	0.589	70125	1	25	10	1	7	controlTrue
42.0027	3.5	criticalItem	n/a	n/a	10150	1	50	11	1	1	n/a
45.4857	3.0	criticalItem	n/a	n/a	30150	1	50	12	1	0	n/a
48.4859	3.0	criticalItem	False	0.609	30150	1	50	13	1	3	criticalFalse
52.002	3.5	criticalItem	n/a	n/a	10131	1	31	14	1	1	n/a
55.4852	3.0	criticalItem	n/a	n/a	70131	1	31	15	1	0	n/a
58.4847	3.0	criticalItem	False	0.578	70131	1	31	16	1	7	criticalFalse
62.001	3.5	controlItem	n/a	n/a	10107	1	7	17	1	1	n/a
65.484	3.0	controlItem	n/a	n/a	20107	1	7	18	1	0	n/a
68.4836	3.0	controlItem	Foil1	1.247	20107	1	7	19	1	2	controlFoil1
72.0011	3.5	criticalItem	n/a	n/a	10126	1	26	20	1	1	n/a
75.4832	3.0	criticalItem	n/a	n/a	50126	1	26	21	1	0	n/a
78.4829	3.0	criticalItem	False	0.967	50126	1	26	22	1	5	criticalFalse
82.0152	3.5	controlItem	n/a	n/a	10146	1	46	23	1	1	n/a
85.4988	3.0	controlItem	n/a	n/a	40146	1	46	24	1	0	n/a
88.4992	3.0	controlItem	True	1.226	40146	1	46	25	1	4	controlTrue
92.0151	3.5	controlItem	n/a	n/a	10140	1	40	26	1	1	n/a
95.4985	3.0	controlItem	n/a	n/a	50140	1	40	27	1	0	n/a
98.4983	3.0	controlItem	True	0.689	50140	1	40	28	1	5	controlTrue
102.013	3.5	controlItem	n/a	n/a	10121	1	21	29	1	1	n/a
105.497	3.0	controlItem	n/a	n/a	70121	1	21	30	1	0	n/a
108.496	3.0	controlItem	Foil2	0.457	70121	1	21	31	1	7	controlFoil2
112.013	3.5	criticalItem	n/a	n/a	10128	1	28	32	1	1	n/a
115.496	3.0	criticalItem	n/a	n/a	50128	1	28	33	1	0	n/a
118.496	3.0	criticalItem	False	0.903	50128	1	28	34	1	5	criticalFalse
122.013	3.5	criticalItem	n/a	n/a	10141	1	41	35	1	1	n/a
125.495	3.0	criticalItem	n/a	n/a	50141	1	41	36	1	0	n/a
128.494	3.0	criticalItem	False	0.596	50141	1	41	37	1	5	criticalFalse
132.012	3.5	controlItem	n/a	n/a	10124	1	24	38	1	1	n/a
135.495	3.0	controlItem	n/a	n/a	50124	1	24	39	1	0	n/a
138.493	3.0	controlItem	True	0.521	50124	1	24	40	1	5	controlTrue
142.011	3.5	controlItem	n/a	n/a	10118	1	18	41	1	1	n/a
145.493	3.0	controlItem	n/a	n/a	70118	1	18	42	1	0	n/a
148.493	3.0	controlItem	Foil1	1.407	70118	1	18	43	1	7	controlFoil1
152.01	3.5	controlItem	n/a	n/a	10104	1	4	44	1	1	n/a
155.492	3.0	controlItem	n/a	n/a	40104	1	4	45	1	0	n/a
158.491	3.0	controlItem	Foil1	1.159	40104	1	4	46	1	4	controlFoil1
162.007	3.5	criticalItem	n/a	n/a	10136	1	36	47	1	1	n/a
165.491	3.0	criticalItem	n/a	n/a	20136	1	36	48	1	0	n/a
168.49	3.0	criticalItem	False	0.935	20136	1	36	49	1	2	criticalFalse
172.006	3.5	criticalItem	n/a	n/a	10122	1	22	50	1	1	n/a
175.489	3.0	criticalItem	n/a	n/a	20122	1	22	51	1	0	n/a
178.489	3.0	criticalItem	True	0.776	20122	1	22	52	1	2	criticalTrue
182.005	3.5	controlItem	n/a	n/a	10149	1	49	53	1	1	n/a
185.489	3.0	controlItem	n/a	n/a	40149	1	49	54	1	0	n/a
188.488	3.0	controlItem	True	0.9	40149	1	49	55	1	4	controlTrue
192.005	3.5	controlItem	n/a	n/a	10132	1	32	56	1	1	n/a
195.488	3.0	controlItem	n/a	n/a	30132	1	32	57	1	0	n/a
198.487	3.0	controlItem	True	0.541	30132	1	32	58	1	3	controlTrue
202.004	3.5	criticalItem	n/a	n/a	10112	1	12	59	1	1	n/a
205.488	3.0	criticalItem	n/a	n/a	70112	1	12	60	1	0	n/a
208.486	3.0	criticalItem	False	1.508	70112	1	12	61	1	7	criticalFalse
212.002	3.5	criticalItem	n/a	n/a	10119	1	19	62	1	1	n/a
215.487	3.0	criticalItem	n/a	n/a	20119	1	19	63	1	0	n/a
218.486	3.0	criticalItem	True	0.591	20119	1	19	64	1	2	criticalTrue
222.001	3.5	controlItem	n/a	n/a	10123	1	23	65	1	1	n/a
225.485	3.0	controlItem	n/a	n/a	70123	1	23	66	1	0	n/a
228.483	3.0	controlItem	True	1.459	70123	1	23	67	1	7	controlTrue
232	3.5	criticalItem	n/a	n/a	10117	1	17	68	1	1	n/a
235.485	3.0	criticalItem	n/a	n/a	60117	1	17	69	1	0	n/a
238.484	3.0	criticalItem	False	0.816	60117	1	17	70	1	6	criticalFalse
241.999	3.5	criticalItem	n/a	n/a	10110	1	10	71	1	1	n/a
245.483	3.0	criticalItem	n/a	n/a	60110	1	10	72	1	0	n/a
248.483	3.0	criticalItem	True	0.678	60110	1	10	73	1	6	criticalTrue
252.015	n/a	n/a	n/a	n/a	90100	1	0	74	1	9	n/a
255.999	n/a	n/a	n/a	n/a	80300	3	0	75	1	8	n/a
266.013	3.5	criticalItem	n/a	n/a	10341	3	41	76	1	1	n/a
269.498	3.0	criticalItem	n/a	n/a	20341	3	41	77	1	0	n/a
272.498	3.0	criticalItem	True	0.431	20341	3	41	78	1	2	criticalTrue
276.014	3.5	criticalItem	n/a	n/a	10347	3	47	79	1	1	n/a
279.497	3.0	criticalItem	n/a	n/a	20347	3	47	80	1	0	n/a
282.496	3.0	criticalItem	False	0.679	20347	3	47	81	1	2	criticalFalse
286.011	3.5	criticalItem	n/a	n/a	10330	3	30	82	1	1	n/a
289.495	3.0	criticalItem	n/a	n/a	30330	3	30	83	1	0	n/a
292.495	3.0	criticalItem	True	0.789	30330	3	30	84	1	3	criticalTrue
296.01	3.5	criticalItem	n/a	n/a	10305	3	5	85	1	1	n/a
299.493	3.0	criticalItem	n/a	n/a	70305	3	5	86	1	0	n/a
302.493	3.0	criticalItem	True	0.563	70305	3	5	87	1	7	criticalTrue
306.011	3.5	controlItem	n/a	n/a	10309	3	9	88	1	1	n/a
309.493	3.0	controlItem	n/a	n/a	60309	3	9	89	1	0	n/a
312.492	3.0	controlItem	True	0.845	60309	3	9	90	1	6	controlTrue
316.009	3.5	controlItem	n/a	n/a	10331	3	31	91	1	1	n/a
319.492	3.0	controlItem	n/a	n/a	70331	3	31	92	1	0	n/a
322.492	3.0	controlItem	True	1.234	70331	3	31	93	1	7	controlTrue
326.007	3.5	controlItem	n/a	n/a	10345	3	45	94	1	1	n/a
329.491	3.0	controlItem	n/a	n/a	40345	3	45	95	1	0	n/a
332.491	3.0	controlItem	True	0.744	40345	3	45	96	1	4	controlTrue
336.007	3.5	controlItem	n/a	n/a	10317	3	17	97	1	1	n/a
339.491	3.0	controlItem	n/a	n/a	40317	3	17	98	1	0	n/a
342.489	3.0	controlItem	True	0.726	40317	3	17	99	1	4	controlTrue
346.005	3.5	criticalItem	n/a	n/a	10316	3	16	100	1	1	n/a
349.489	3.0	criticalItem	n/a	n/a	40316	3	16	101	1	0	n/a
352.488	3.0	criticalItem	Foil	1.218	40316	3	16	102	1	4	criticalFoil
356.004	3.5	controlItem	n/a	n/a	10348	3	48	103	1	1	n/a
359.488	3.0	controlItem	n/a	n/a	20348	3	48	104	1	0	n/a
362.487	3.0	controlItem	True	0.496	20348	3	48	105	1	2	controlTrue
366.004	3.5	controlItem	n/a	n/a	10350	3	50	106	1	1	n/a
369.487	3.0	controlItem	n/a	n/a	70350	3	50	107	1	0	n/a
372.487	3.0	controlItem	True	0.565	70350	3	50	108	1	7	controlTrue
376.002	3.5	criticalItem	n/a	n/a	10327	3	27	109	1	1	n/a
379.486	3.0	criticalItem	n/a	n/a	40327	3	27	110	1	0	n/a
382.485	3.0	criticalItem	True	0.385	40327	3	27	111	1	4	criticalTrue
386.001	3.5	criticalItem	n/a	n/a	10336	3	36	112	1	1	n/a
389.485	3.0	criticalItem	n/a	n/a	70336	3	36	113	1	0	n/a
392.484	3.0	criticalItem	False	0.634	70336	3	36	114	1	7	criticalFalse
396	3.5	controlItem	n/a	n/a	10320	3	20	115	1	1	n/a
399.485	3.0	controlItem	n/a	n/a	40320	3	20	116	1	0	n/a
402.483	3.0	controlItem	True	0.559	40320	3	20	117	1	4	controlTrue
406.001	3.5	criticalItem	n/a	n/a	10322	3	22	118	1	1	n/a
409.483	3.0	criticalItem	n/a	n/a	50322	3	22	119	1	0	n/a
412.482	3.0	criticalItem	True	0.55	50322	3	22	120	1	5	criticalTrue
416.015	3.5	controlItem	n/a	n/a	10303	3	3	121	1	1	n/a
419.498	3.0	controlItem	n/a	n/a	60303	3	3	122	1	0	n/a
422.499	3.0	controlItem	True	0.687	60303	3	3	123	1	6	controlTrue
426.014	3.5	criticalItem	n/a	n/a	10324	3	24	124	1	1	n/a
429.497	3.0	criticalItem	n/a	n/a	40324	3	24	125	1	0	n/a
432.497	3.0	criticalItem	False	0.615	40324	3	24	126	1	4	criticalFalse
436.013	3.5	criticalItem	n/a	n/a	10332	3	32	127	1	1	n/a
439.496	3.0	criticalItem	n/a	n/a	50332	3	32	128	1	0	n/a
442.496	3.0	criticalItem	False	0.653	50332	3	32	129	1	5	criticalFalse
446.012	3.5	controlItem	n/a	n/a	10342	3	42	130	1	1	n/a
449.495	3.0	controlItem	n/a	n/a	30342	3	42	131	1	0	n/a
452.495	3.0	controlItem	True	1.137	30342	3	42	132	1	3	controlTrue
456.011	3.5	controlItem	n/a	n/a	10325	3	25	133	1	1	n/a
459.494	3.0	controlItem	n/a	n/a	30325	3	25	134	1	0	n/a
462.494	3.0	controlItem	Foil1	0.92	30325	3	25	135	1	3	controlFoil1
466.009	3.5	criticalItem	n/a	n/a	10344	3	44	136	1	1	n/a
469.493	3.0	criticalItem	n/a	n/a	70344	3	44	137	1	0	n/a
472.493	3.0	criticalItem	Foil	0.528	70344	3	44	138	1	7	criticalFoil
476.009	3.5	criticalItem	n/a	n/a	10319	3	19	139	1	1	n/a
479.493	3.0	criticalItem	n/a	n/a	20319	3	19	140	1	0	n/a
482.491	3.0	criticalItem	Foil	0.619	20319	3	19	141	1	2	criticalFoil
486.009	3.5	controlItem	n/a	n/a	10313	3	13	142	1	1	n/a
489.491	3.0	controlItem	n/a	n/a	30313	3	13	143	1	0	n/a
492.491	3.0	controlItem	True	1.01	30313	3	13	144	1	3	controlTrue
496.007	3.5	controlItem	n/a	n/a	10329	3	29	145	1	1	n/a
499.49	3.0	controlItem	n/a	n/a	70329	3	29	146	1	0	n/a
502.49	3.0	controlItem	True	0.429	70329	3	29	147	1	7	controlTrue
506.006	n/a	n/a	n/a	n/a	90300	3	0	148	1	9	n/a
