onset	duration	trial_type	response	response_time	stim_id	stim_version	stim_events	stim_slides	trial_id	run_id	stim_redcross	subsequent_response_type
2.0292	n/a	n/a	n/a	n/a	80100	8	1	0	106	2	n/a	n/a
6.025	3.5	genericItem	n/a	n/a	10101	1	1	1	107	2	n/a	n/a
10.0246	3.5	genericItem	n/a	n/a	10102	1	1	2	108	2	n/a	n/a
14.023	3.5	genericItem	n/a	n/a	10103	1	1	3	109	2	n/a	n/a
18.0246	3.5	controlItem	n/a	n/a	10104	1	1	4	110	2	n/a	controlFoil2
22.0236	3.5	genericItem	n/a	n/a	10105	1	1	5	111	2	n/a	n/a
26.0234	3.5	genericItem	1	0.17	10106	1	1	6	112	2	1	n/a
30.0229	3.5	controlItem	n/a	n/a	10107	1	1	7	113	2	n/a	controlTrue
34.0234	3.5	genericItem	n/a	n/a	10108	1	1	8	114	2	n/a	n/a
38.0238	3.5	genericItem	n/a	n/a	10109	1	1	9	115	2	n/a	n/a
42.0338	3.5	criticalItem	n/a	n/a	10110	1	1	10	116	2	n/a	criticalTrue
46.0244	3.5	genericItem	n/a	n/a	10111	1	1	11	117	2	n/a	n/a
50.0222	3.5	criticalItem	n/a	n/a	10112	1	1	12	118	2	n/a	criticalTrue
54.0238	3.5	genericItem	n/a	n/a	10113	1	1	13	119	2	n/a	n/a
58.0239	3.5	criticalItem	n/a	n/a	10114	1	1	14	120	2	n/a	criticalTrue
62.024	3.5	genericItem	n/a	n/a	10115	1	1	15	121	2	n/a	n/a
66.0234	3.5	controlItem	n/a	n/a	10116	1	1	16	122	2	n/a	controlFoil1
70.0231	3.5	criticalItem	n/a	n/a	10117	1	1	17	123	2	n/a	criticalTrue
74.0242	3.5	controlItem	n/a	n/a	10118	1	1	18	124	2	n/a	controlFoil1
78.0241	3.5	criticalItem	n/a	n/a	10119	1	1	19	125	2	n/a	criticalTrue
82.024	3.5	genericItem	n/a	n/a	10120	1	1	20	126	2	n/a	n/a
86.0244	3.5	controlItem	n/a	n/a	10121	1	1	21	127	2	n/a	controlFoil2
90.024	3.5	criticalItem	n/a	n/a	10122	1	1	22	128	2	n/a	criticalTrue
94.0246	3.5	controlItem	n/a	n/a	10123	1	1	23	129	2	n/a	controlFoil1
98.0236	3.5	controlItem	n/a	n/a	10124	1	1	24	130	2	n/a	controlFoil1
102.024	3.5	controlItem	n/a	n/a	10125	1	1	25	131	2	n/a	controlFoil1
106.024	3.5	criticalItem	n/a	n/a	10126	1	1	26	132	2	n/a	criticalFalse
110.024	3.5	genericItem	n/a	n/a	10127	1	1	27	133	2	n/a	n/a
114.024	3.5	criticalItem	n/a	n/a	10128	1	1	28	134	2	n/a	criticalTrue
118.023	3.5	genericItem	n/a	n/a	10129	1	1	29	135	2	n/a	n/a
122.023	3.5	genericItem	n/a	n/a	10130	1	1	30	136	2	n/a	n/a
126.025	3.5	criticalItem	n/a	n/a	10131	1	1	31	137	2	n/a	criticalTrue
130.024	3.5	controlItem	n/a	n/a	10132	1	1	32	138	2	n/a	controlTrue
134.023	3.5	genericItem	n/a	n/a	10133	1	1	33	139	2	n/a	n/a
138.024	3.5	genericItem	n/a	n/a	10134	1	1	34	140	2	n/a	n/a
142.024	3.5	genericItem	n/a	n/a	10135	1	1	35	141	2	n/a	n/a
146.024	3.5	criticalItem	n/a	n/a	10136	1	1	36	142	2	n/a	criticalFalse
150.024	3.5	genericItem	n/a	n/a	10137	1	1	37	143	2	n/a	n/a
154.024	3.5	genericItem	n/a	n/a	10138	1	1	38	144	2	n/a	n/a
158.024	3.5	genericItem	n/a	n/a	10139	1	1	39	145	2	n/a	n/a
162.024	3.5	controlItem	n/a	n/a	10140	1	1	40	146	2	n/a	controlTrue
166.023	3.5	criticalItem	n/a	n/a	10141	1	1	41	147	2	n/a	criticalFalse
170.023	3.5	genericItem	1	0.39	10142	1	1	42	148	2	1	n/a
174.024	3.5	genericItem	n/a	n/a	10143	1	1	43	149	2	n/a	n/a
178.024	3.5	genericItem	n/a	n/a	10144	1	1	44	150	2	n/a	n/a
182.024	3.5	genericItem	n/a	n/a	10145	1	1	45	151	2	n/a	n/a
186.023	3.5	controlItem	n/a	n/a	10146	1	1	46	152	2	n/a	controlTrue
190.023	3.5	genericItem	n/a	n/a	10147	1	1	47	153	2	n/a	n/a
194.023	3.5	genericItem	n/a	n/a	10148	1	1	48	154	2	n/a	n/a
198.023	3.5	controlItem	n/a	n/a	10149	1	1	49	155	2	n/a	controlTrue
202.023	3.5	criticalItem	n/a	n/a	10150	1	1	50	156	2	n/a	criticalTrue
206.024	n/a	n/a	n/a	n/a	90100	9	1	0	157	2	n/a	n/a
210.023	n/a	n/a	n/a	n/a	80700	8	7	0	158	2	n/a	n/a
214.024	3.5	genericItem	n/a	n/a	10701	1	7	1	159	2	n/a	n/a
218.023	3.5	genericItem	1	0.394	10702	1	7	2	160	2	1	n/a
222.023	3.5	controlItem	n/a	n/a	10703	1	7	3	161	2	n/a	controlFoil1
226.024	3.5	criticalItem	n/a	n/a	20704	2	7	4	162	2	n/a	criticalTrue
230.024	3.5	controlItem	n/a	n/a	10705	1	7	5	163	2	n/a	controlTrue
234.023	3.5	genericItem	n/a	n/a	10706	1	7	6	164	2	n/a	n/a
238.024	3.5	controlItem	n/a	n/a	10707	1	7	7	165	2	n/a	controlFoil2
242.024	3.5	controlItem	n/a	n/a	10708	1	7	8	166	2	n/a	controlFoil1
246.024	3.5	criticalItem	n/a	n/a	20709	2	7	9	167	2	n/a	criticalTrue
250.024	3.5	genericItem	n/a	n/a	10710	1	7	10	168	2	n/a	n/a
254.024	3.5	controlItem	n/a	n/a	10711	1	7	11	169	2	n/a	controlTrue
258.023	3.5	criticalItem	n/a	n/a	20712	2	7	12	170	2	n/a	criticalTrue
262.024	3.5	genericItem	n/a	n/a	10713	1	7	13	171	2	n/a	n/a
266.023	3.5	controlItem	n/a	n/a	10714	1	7	14	172	2	n/a	controlTrue
270.024	3.5	genericItem	n/a	n/a	10715	1	7	15	173	2	n/a	n/a
274.024	3.5	genericItem	n/a	n/a	10716	1	7	16	174	2	n/a	n/a
278.024	3.5	genericItem	n/a	n/a	10717	1	7	17	175	2	n/a	n/a
282.023	3.5	controlItem	n/a	n/a	10718	1	7	18	176	2	n/a	controlTrue
286.023	3.5	criticalItem	n/a	n/a	20719	2	7	19	177	2	n/a	criticalFalse
290.023	3.5	controlItem	n/a	n/a	10720	1	7	20	178	2	n/a	controlTrue
294.025	3.5	criticalItem	n/a	n/a	20721	2	7	21	179	2	n/a	criticalFoil
298.024	3.5	genericItem	n/a	n/a	10722	1	7	22	180	2	n/a	n/a
302.025	3.5	genericItem	1	0.507	10723	1	7	23	181	2	1	n/a
306.024	3.5	genericItem	n/a	n/a	10724	1	7	24	182	2	n/a	n/a
310.023	3.5	genericItem	n/a	n/a	10725	1	7	25	183	2	n/a	n/a
314.023	3.5	criticalItem	n/a	n/a	20726	2	7	26	184	2	n/a	criticalTrue
318.024	3.5	genericItem	1	0.345	10727	1	7	27	185	2	1	n/a
322.024	3.5	controlItem	n/a	n/a	10728	1	7	28	186	2	n/a	controlTrue
326.023	3.5	criticalItem	n/a	n/a	20729	2	7	29	187	2	n/a	criticalFalse
330.024	3.5	genericItem	n/a	n/a	10730	1	7	30	188	2	n/a	n/a
334.024	3.5	genericItem	n/a	n/a	10731	1	7	31	189	2	n/a	n/a
338.024	3.5	genericItem	n/a	n/a	10732	1	7	32	190	2	n/a	n/a
342.024	3.5	genericItem	n/a	n/a	10733	1	7	33	191	2	n/a	n/a
346.024	3.5	controlItem	n/a	n/a	10734	1	7	34	192	2	n/a	controlTrue
350.023	3.5	criticalItem	n/a	n/a	20735	2	7	35	193	2	n/a	criticalFalse
354.024	3.5	genericItem	n/a	n/a	10736	1	7	36	194	2	n/a	n/a
358.023	3.5	genericItem	1	0.583	10737	1	7	37	195	2	1	n/a
362.024	3.5	genericItem	n/a	n/a	10738	1	7	38	196	2	n/a	n/a
366.023	3.5	criticalItem	n/a	n/a	20739	2	7	39	197	2	n/a	criticalTrue
370.024	3.5	controlItem	n/a	n/a	10740	1	7	40	198	2	n/a	controlFoil1
374.024	3.5	genericItem	n/a	n/a	10741	1	7	41	199	2	n/a	n/a
378.024	3.5	genericItem	n/a	n/a	10742	1	7	42	200	2	n/a	n/a
382.024	3.5	genericItem	n/a	n/a	10743	1	7	43	201	2	n/a	n/a
386.024	3.5	criticalItem	n/a	n/a	20744	2	7	44	202	2	n/a	criticalFalse
390.024	3.5	genericItem	n/a	n/a	10745	1	7	45	203	2	n/a	n/a
394.023	3.5	criticalItem	n/a	n/a	20746	2	7	46	204	2	n/a	criticalFalse
398.024	3.5	genericItem	n/a	n/a	10747	1	7	47	205	2	n/a	n/a
402.024	3.5	genericItem	n/a	n/a	10748	1	7	48	206	2	n/a	n/a
406.024	3.5	criticalItem	n/a	n/a	20749	2	7	49	207	2	n/a	criticalFalse
410.024	3.5	controlItem	n/a	n/a	10750	1	7	50	208	2	n/a	controlTrue
414.023	n/a	n/a	n/a	n/a	90700	9	7	0	209	2	n/a	n/a
418.024	n/a	n/a	n/a	n/a	90000	5	0	0	210	2	n/a	n/a
