onset	duration	trial_type	response	response_time	stim_id	stim_version	stim_events	stim_slides	trial_id	run_id	stim_redcross	subsequent_response_type
2.1104	n/a	n/a	n/a	n/a	80900	8	9	0	1	1	n/a	n/a
6.0933	3.5	genericItem	n/a	n/a	10901	1	9	1	2	1	n/a	n/a
10.0651	3.5	genericItem	n/a	n/a	10902	1	9	2	3	1	n/a	n/a
14.0865	3.5	controlItem	n/a	n/a	10903	1	9	3	4	1	n/a	controlFoil1
18.0871	3.5	criticalItem	n/a	n/a	10904	1	9	4	5	1	n/a	criticalTrue
22.0311	3.5	controlItem	n/a	n/a	10905	1	9	5	6	1	n/a	controlFoil1
26.0779	3.5	genericItem	n/a	n/a	10906	1	9	6	7	1	n/a	n/a
30.1	3.5	genericItem	n/a	n/a	10907	1	9	7	8	1	n/a	n/a
34.0516	3.5	criticalItem	n/a	n/a	10908	1	9	8	9	1	n/a	criticalFalse
38.0583	3.5	controlItem	n/a	n/a	10909	1	9	9	10	1	n/a	controlFoil1
42.081	3.5	criticalItem	n/a	n/a	10910	1	9	10	11	1	n/a	criticalFalse
46.0702	3.5	controlItem	n/a	n/a	10911	1	9	11	12	1	n/a	controlTrue
50.0803	3.5	genericItem	n/a	n/a	10912	1	9	12	13	1	1	n/a
54.0255	3.5	criticalItem	n/a	n/a	10913	1	9	13	14	1	n/a	criticalTrue
58.0406	3.5	genericItem	n/a	n/a	10914	1	9	14	15	1	n/a	n/a
62.074	3.5	controlItem	n/a	n/a	10915	1	9	15	16	1	n/a	controlFoil1
66.1018	3.5	genericItem	n/a	n/a	10916	1	9	16	17	1	n/a	n/a
70.0639	3.5	controlItem	n/a	n/a	10917	1	9	17	18	1	n/a	controlFoil1
74.094	3.5	genericItem	n/a	n/a	10918	1	9	18	19	1	n/a	n/a
78.036	3.5	criticalItem	n/a	n/a	10919	1	9	19	20	1	n/a	criticalFalse
82.0634	3.5	genericItem	n/a	n/a	10920	1	9	20	21	1	n/a	n/a
86.0836	3.5	genericItem	n/a	n/a	10921	1	9	21	22	1	n/a	n/a
90.0782	3.5	criticalItem	n/a	n/a	10922	1	9	22	23	1	n/a	criticalFalse
94.0617	3.5	controlItem	n/a	n/a	10923	1	9	23	24	1	n/a	controlTrue
98.1162	3.5	criticalItem	n/a	n/a	10924	1	9	24	25	1	n/a	criticalFoil
102.076	3.5	genericItem	n/a	n/a	10925	1	9	25	26	1	n/a	n/a
106.094	3.5	criticalItem	n/a	n/a	10926	1	9	26	27	1	n/a	criticalFalse
110.059	3.5	genericItem	n/a	n/a	10927	1	9	27	28	1	n/a	n/a
114.078	3.5	criticalItem	n/a	n/a	10928	1	9	28	29	1	n/a	criticalFoil
118.044	3.5	genericItem	n/a	n/a	10929	1	9	29	30	1	n/a	n/a
122.052	3.5	genericItem	n/a	n/a	10930	1	9	30	31	1	n/a	n/a
126.084	3.5	controlItem	n/a	n/a	10931	1	9	31	32	1	n/a	controlTrue
130.059	3.5	genericItem	n/a	n/a	10932	1	9	32	33	1	1	n/a
134.083	3.5	genericItem	n/a	n/a	10933	1	9	33	34	1	n/a	n/a
138.102	3.5	genericItem	n/a	n/a	10934	1	9	34	35	1	n/a	n/a
142.025	3.5	criticalItem	n/a	n/a	10935	1	9	35	36	1	n/a	criticalFalse
146.079	3.5	genericItem	n/a	n/a	10936	1	9	36	37	1	n/a	n/a
150.044	3.5	genericItem	n/a	n/a	10937	1	9	37	38	1	n/a	n/a
154.051	3.5	genericItem	n/a	n/a	10938	1	9	38	39	1	n/a	n/a
158.079	3.5	genericItem	n/a	n/a	10939	1	9	39	40	1	n/a	n/a
162.076	3.5	genericItem	n/a	n/a	10940	1	9	40	41	1	n/a	n/a
166.059	3.5	criticalItem	n/a	n/a	10941	1	9	41	42	1	n/a	criticalTrue
170.045	3.5	genericItem	n/a	n/a	10942	1	9	42	43	1	n/a	n/a
174.078	3.5	controlItem	n/a	n/a	10943	1	9	43	44	1	n/a	controlTrue
178.062	3.5	genericItem	n/a	n/a	10944	1	9	44	45	1	n/a	n/a
182.06	3.5	controlItem	n/a	n/a	10945	1	9	45	46	1	n/a	controlTrue
186.05	3.5	genericItem	n/a	n/a	10946	1	9	46	47	1	n/a	n/a
190.055	3.5	controlItem	n/a	n/a	10947	1	9	47	48	1	n/a	controlTrue
194.082	3.5	genericItem	n/a	n/a	10948	1	9	48	49	1	n/a	n/a
198.076	3.5	criticalItem	n/a	n/a	10949	1	9	49	50	1	n/a	criticalFalse
202.033	3.5	controlItem	n/a	n/a	10950	1	9	50	51	1	n/a	controlFoil2
206.076	n/a	n/a	n/a	n/a	90900	9	9	0	52	1	n/a	n/a
210.021	n/a	n/a	n/a	n/a	80100	8	1	0	53	1	n/a	n/a
214.069	3.5	genericItem	n/a	n/a	10101	1	1	1	54	1	n/a	n/a
218.044	3.5	genericItem	n/a	n/a	10102	1	1	2	55	1	n/a	n/a
222.082	3.5	genericItem	1	0.998	10103	1	1	3	56	1	1	n/a
226.067	3.5	controlItem	n/a	n/a	10104	1	1	4	57	1	n/a	controlTrue
230.09	3.5	genericItem	n/a	n/a	10105	1	1	5	58	1	n/a	n/a
234.056	3.5	genericItem	1	0.826	10106	1	1	6	59	1	1	n/a
238.062	3.5	controlItem	n/a	n/a	10107	1	1	7	60	1	n/a	controlTrue
242.091	3.5	genericItem	n/a	n/a	10108	1	1	8	61	1	n/a	n/a
246.029	3.5	genericItem	n/a	n/a	10109	1	1	9	62	1	n/a	n/a
250.062	3.5	criticalItem	n/a	n/a	10110	1	1	10	63	1	n/a	criticalTrue
254.086	3.5	genericItem	n/a	n/a	10111	1	1	11	64	1	n/a	n/a
258.089	3.5	criticalItem	n/a	n/a	10112	1	1	12	65	1	n/a	criticalTrue
262.066	3.5	genericItem	1	0.685	10113	1	1	13	66	1	1	n/a
266.063	3.5	criticalItem	n/a	n/a	10114	1	1	14	67	1	n/a	criticalFoil
270.137	3.5	genericItem	n/a	n/a	10115	1	1	15	68	1	n/a	n/a
274.129	3.5	controlItem	n/a	n/a	10116	1	1	16	69	1	n/a	controlTrue
278.086	3.5	criticalItem	n/a	n/a	10117	1	1	17	70	1	n/a	criticalFalse
282.064	3.5	controlItem	n/a	n/a	10118	1	1	18	71	1	n/a	controlFoil1
286.071	3.5	criticalItem	n/a	n/a	10119	1	1	19	72	1	n/a	criticalFalse
290.083	3.5	genericItem	n/a	n/a	10120	1	1	20	73	1	n/a	n/a
294.111	3.5	controlItem	n/a	n/a	10121	1	1	21	74	1	n/a	controlFoil1
298.059	3.5	criticalItem	n/a	n/a	10122	1	1	22	75	1	n/a	criticalFalse
302.064	3.5	controlItem	n/a	n/a	10123	1	1	23	76	1	n/a	controlTrue
306.127	3.5	controlItem	n/a	n/a	10124	1	1	24	77	1	n/a	controlFoil1
310.085	3.5	controlItem	n/a	n/a	10125	1	1	25	78	1	n/a	controlTrue
314.146	3.5	criticalItem	n/a	n/a	10126	1	1	26	79	1	n/a	criticalFalse
318.083	3.5	genericItem	n/a	n/a	10127	1	1	27	80	1	n/a	n/a
322.063	3.5	criticalItem	n/a	n/a	10128	1	1	28	81	1	n/a	criticalFalse
326.082	3.5	genericItem	n/a	n/a	10129	1	1	29	82	1	n/a	n/a
330.043	3.5	genericItem	n/a	n/a	10130	1	1	30	83	1	n/a	n/a
334.082	3.5	criticalItem	n/a	n/a	10131	1	1	31	84	1	n/a	criticalTrue
338.08	3.5	controlItem	n/a	n/a	10132	1	1	32	85	1	n/a	controlFoil1
342.082	3.5	genericItem	n/a	n/a	10133	1	1	33	86	1	n/a	n/a
346.096	3.5	genericItem	n/a	n/a	10134	1	1	34	87	1	n/a	n/a
350.127	3.5	genericItem	n/a	n/a	10135	1	1	35	88	1	n/a	n/a
354.135	3.5	criticalItem	n/a	n/a	10136	1	1	36	89	1	n/a	criticalFalse
358.062	3.5	genericItem	n/a	n/a	10137	1	1	37	90	1	n/a	n/a
362.063	3.5	genericItem	n/a	n/a	10138	1	1	38	91	1	n/a	n/a
366.042	3.5	genericItem	n/a	n/a	10139	1	1	39	92	1	n/a	n/a
370.087	3.5	controlItem	n/a	n/a	10140	1	1	40	93	1	n/a	controlTrue
374.081	3.5	criticalItem	n/a	n/a	10141	1	1	41	94	1	n/a	criticalTrue
378.079	3.5	genericItem	1	0.858	10142	1	1	42	95	1	1	n/a
382.04	3.5	genericItem	n/a	n/a	10143	1	1	43	96	1	n/a	n/a
386.119	3.5	genericItem	n/a	n/a	10144	1	1	44	97	1	n/a	n/a
390.08	3.5	genericItem	n/a	n/a	10145	1	1	45	98	1	n/a	n/a
394.06	3.5	controlItem	n/a	n/a	10146	1	1	46	99	1	n/a	controlFoil2
398.042	3.5	genericItem	n/a	n/a	10147	1	1	47	100	1	n/a	n/a
402.123	3.5	genericItem	n/a	n/a	10148	1	1	48	101	1	n/a	n/a
406.028	3.5	controlItem	n/a	n/a	10149	1	1	49	102	1	n/a	controlTrue
410.081	3.5	criticalItem	n/a	n/a	10150	1	1	50	103	1	n/a	criticalTrue
414.106	n/a	n/a	n/a	n/a	90100	9	1	0	104	1	n/a	n/a
418.021	n/a	n/a	n/a	n/a	90000	9	0	0	105	1	n/a	n/a
