onset	duration	trial_type	response	response_time	stim_id	stim_version	stim_events	stim_slides	trial_id	run_id	stim_redcross	subsequent_response_type
2.0285	n/a	n/a	n/a	n/a	80100	8	1	0	106	2	n/a	n/a
6.0332	3.5	genericItem	n/a	n/a	10101	1	1	1	107	2	n/a	n/a
10.0325	3.5	genericItem	n/a	n/a	10102	1	1	2	108	2	n/a	n/a
14.032	3.5	genericItem	n/a	n/a	10103	1	1	3	109	2	n/a	n/a
18.0312	3.5	controlItem	n/a	n/a	10104	1	1	4	110	2	n/a	controlTrue
22.0305	3.5	genericItem	n/a	n/a	10105	1	1	5	111	2	n/a	n/a
26.0316	3.5	genericItem	n/a	n/a	10106	1	1	6	112	2	n/a	n/a
30.032	3.5	controlItem	n/a	n/a	10107	1	1	7	113	2	n/a	controlTrue
34.0305	3.5	genericItem	n/a	n/a	10108	1	1	8	114	2	1	n/a
38.0314	3.5	genericItem	n/a	n/a	10109	1	1	9	115	2	n/a	n/a
42.1107	3.5	criticalItem	n/a	n/a	20110	2	1	10	116	2	n/a	criticalTrue
46.0315	3.5	genericItem	n/a	n/a	10111	1	1	11	117	2	1	n/a
50.0677	3.5	criticalItem	n/a	n/a	20112	2	1	12	118	2	n/a	criticalFalse
54.0313	3.5	genericItem	n/a	n/a	10113	1	1	13	119	2	n/a	n/a
58.0788	3.5	criticalItem	n/a	n/a	20114	2	1	14	120	2	n/a	criticalTrue
62.0303	3.5	genericItem	n/a	n/a	10115	1	1	15	121	2	n/a	n/a
66.0326	3.5	controlItem	n/a	n/a	10116	1	1	16	122	2	n/a	controlTrue
70.0751	3.5	criticalItem	n/a	n/a	20117	2	1	17	123	2	n/a	criticalFalse
74.0318	3.5	controlItem	n/a	n/a	10118	1	1	18	124	2	n/a	controlTrue
78.0887	3.5	criticalItem	n/a	n/a	20119	2	1	19	125	2	n/a	criticalFalse
82.0315	3.5	genericItem	n/a	n/a	10120	1	1	20	126	2	n/a	n/a
86.0308	3.5	controlItem	n/a	n/a	10121	1	1	21	127	2	n/a	controlTrue
90.0334	3.5	criticalItem	n/a	n/a	20122	2	1	22	128	2	n/a	criticalTrue
94.0312	3.5	controlItem	n/a	n/a	10123	1	1	23	129	2	n/a	controlTrue
98.0304	3.5	controlItem	n/a	n/a	10124	1	1	24	130	2	n/a	controlTrue
102.03	3.5	controlItem	n/a	n/a	10125	1	1	25	131	2	n/a	controlFoil1
106.078	3.5	criticalItem	n/a	n/a	20126	2	1	26	132	2	n/a	criticalFalse
110.032	3.5	genericItem	n/a	n/a	10127	1	1	27	133	2	n/a	n/a
114.119	3.5	criticalItem	n/a	n/a	20128	2	1	28	134	2	n/a	criticalFalse
118.03	3.5	genericItem	n/a	n/a	10129	1	1	29	135	2	n/a	n/a
122.031	3.5	genericItem	n/a	n/a	10130	1	1	30	136	2	n/a	n/a
126.117	3.5	criticalItem	n/a	n/a	20131	2	1	31	137	2	n/a	criticalFalse
130.029	3.5	controlItem	n/a	n/a	10132	1	1	32	138	2	n/a	controlTrue
134.032	3.5	genericItem	n/a	n/a	10133	1	1	33	139	2	n/a	n/a
138.03	3.5	genericItem	n/a	n/a	10134	1	1	34	140	2	n/a	n/a
142.033	3.5	genericItem	n/a	n/a	10135	1	1	35	141	2	n/a	n/a
146.127	3.5	criticalItem	n/a	n/a	20136	2	1	36	142	2	n/a	criticalFalse
150.031	3.5	genericItem	n/a	n/a	10137	1	1	37	143	2	n/a	n/a
154.03	3.5	genericItem	n/a	n/a	10138	1	1	38	144	2	n/a	n/a
158.031	3.5	genericItem	n/a	n/a	10139	1	1	39	145	2	n/a	n/a
162.031	3.5	controlItem	n/a	n/a	10140	1	1	40	146	2	n/a	controlTrue
166.075	3.5	criticalItem	n/a	n/a	20141	2	1	41	147	2	n/a	criticalFalse
170.029	3.5	genericItem	n/a	n/a	10142	1	1	42	148	2	n/a	n/a
174.029	3.5	genericItem	n/a	n/a	10143	1	1	43	149	2	n/a	n/a
178.03	3.5	genericItem	n/a	n/a	10144	1	1	44	150	2	n/a	n/a
182.028	3.5	genericItem	n/a	n/a	10145	1	1	45	151	2	n/a	n/a
186.03	3.5	controlItem	n/a	n/a	10146	1	1	46	152	2	n/a	controlTrue
190.031	3.5	genericItem	n/a	n/a	10147	1	1	47	153	2	n/a	n/a
194.03	3.5	genericItem	n/a	n/a	10148	1	1	48	154	2	n/a	n/a
198.03	3.5	controlItem	n/a	n/a	10149	1	1	49	155	2	n/a	controlTrue
202.046	3.5	criticalItem	n/a	n/a	20150	2	1	50	156	2	n/a	criticalFalse
206.023	n/a	n/a	n/a	n/a	90100	9	1	0	157	2	n/a	n/a
210.023	n/a	n/a	n/a	n/a	80500	8	5	0	158	2	n/a	n/a
214.028	3.5	genericItem	n/a	n/a	10501	1	5	1	159	2	n/a	n/a
218.026	3.5	genericItem	n/a	n/a	10502	1	5	2	160	2	n/a	n/a
222.027	3.5	criticalItem	n/a	n/a	10503	1	5	3	161	2	n/a	criticalFoil
226.028	3.5	genericItem	n/a	n/a	10504	1	5	4	162	2	n/a	n/a
230.026	3.5	criticalItem	n/a	n/a	10505	1	5	5	163	2	n/a	criticalFalse
234.028	3.5	genericItem	n/a	n/a	10506	1	5	6	164	2	n/a	n/a
238.028	3.5	genericItem	n/a	n/a	10507	1	5	7	165	2	n/a	n/a
242.027	3.5	genericItem	n/a	n/a	10508	1	5	8	166	2	n/a	n/a
246.028	3.5	genericItem	n/a	n/a	10509	1	5	9	167	2	n/a	n/a
250.026	3.5	genericItem	1	0.203	10510	1	5	10	168	2	1	n/a
254.026	3.5	genericItem	n/a	n/a	10511	1	5	11	169	2	n/a	n/a
258.026	3.5	genericItem	n/a	n/a	10512	1	5	12	170	2	n/a	n/a
262.026	3.5	genericItem	n/a	n/a	10513	1	5	13	171	2	n/a	n/a
266.028	3.5	controlItem	n/a	n/a	10514	1	5	14	172	2	n/a	controlFoil2
270.028	3.5	controlItem	n/a	n/a	10515	1	5	15	173	2	n/a	controlFoil2
274.026	3.5	criticalItem	n/a	n/a	10516	1	5	16	174	2	n/a	criticalFalse
278.027	3.5	controlItem	n/a	n/a	10517	1	5	17	175	2	n/a	controlFoil1
282.026	3.5	controlItem	n/a	n/a	10518	1	5	18	176	2	n/a	controlTrue
286.028	3.5	criticalItem	n/a	n/a	10519	1	5	19	177	2	n/a	criticalTrue
290.028	3.5	genericItem	n/a	n/a	10520	1	5	20	178	2	n/a	n/a
294.027	3.5	criticalItem	n/a	n/a	10521	1	5	21	179	2	n/a	criticalFalse
298.028	3.5	controlItem	n/a	n/a	10522	1	5	22	180	2	n/a	controlFoil1
302.028	3.5	criticalItem	n/a	n/a	10523	1	5	23	181	2	n/a	criticalFalse
306.028	3.5	controlItem	n/a	n/a	10524	1	5	24	182	2	n/a	controlFoil1
310.028	3.5	controlItem	n/a	n/a	10525	1	5	25	183	2	n/a	controlTrue
314.027	3.5	criticalItem	n/a	n/a	10526	1	5	26	184	2	n/a	criticalTrue
318.028	3.5	controlItem	n/a	n/a	10527	1	5	27	185	2	n/a	controlTrue
322.026	3.5	genericItem	n/a	n/a	10528	1	5	28	186	2	n/a	n/a
326.026	3.5	genericItem	n/a	n/a	10529	1	5	29	187	2	n/a	n/a
330.027	3.5	genericItem	n/a	n/a	10530	1	5	30	188	2	n/a	n/a
334.027	3.5	criticalItem	n/a	n/a	10531	1	5	31	189	2	n/a	criticalTrue
338.025	3.5	controlItem	n/a	n/a	10532	1	5	32	190	2	n/a	controlTrue
342.029	3.5	genericItem	n/a	n/a	10533	1	5	33	191	2	n/a	n/a
346.028	3.5	genericItem	n/a	n/a	10534	1	5	34	192	2	n/a	n/a
350.027	3.5	genericItem	n/a	n/a	10535	1	5	35	193	2	n/a	n/a
354.029	3.5	genericItem	n/a	n/a	10536	1	5	36	194	2	n/a	n/a
358.027	3.5	genericItem	n/a	n/a	10537	1	5	37	195	2	n/a	n/a
362.028	3.5	genericItem	n/a	n/a	10538	1	5	38	196	2	n/a	n/a
366.029	3.5	criticalItem	n/a	n/a	10539	1	5	39	197	2	n/a	criticalFalse
370.026	3.5	genericItem	1	0.295	10540	1	5	40	198	2	1	n/a
374.027	3.5	criticalItem	n/a	n/a	10541	1	5	41	199	2	n/a	criticalFalse
378.027	3.5	controlItem	n/a	n/a	10542	1	5	42	200	2	n/a	controlFoil1
382.026	3.5	genericItem	n/a	n/a	10543	1	5	43	201	2	n/a	n/a
386.027	3.5	genericItem	n/a	n/a	10544	1	5	44	202	2	n/a	n/a
390.026	3.5	genericItem	n/a	n/a	10545	1	5	45	203	2	n/a	n/a
394.028	3.5	controlItem	n/a	n/a	10546	1	5	46	204	2	n/a	controlTrue
398.026	3.5	criticalItem	n/a	n/a	10547	1	5	47	205	2	n/a	criticalFoil
402.026	3.5	genericItem	n/a	n/a	10548	1	5	48	206	2	n/a	n/a
406.027	3.5	controlItem	n/a	n/a	10549	1	5	49	207	2	n/a	controlFoil1
410.026	3.5	criticalItem	n/a	n/a	10550	1	5	50	208	2	n/a	criticalTrue
414.024	n/a	n/a	n/a	n/a	90500	9	5	0	209	2	n/a	n/a
418.023	n/a	n/a	n/a	n/a	90000	9	0	0	210	2	n/a	n/a
