onset	duration	trial_type	response	response_time	stim_id	stim_version	stim_events	stim_slides	trial_id	run_id	stim_redcross	subsequent_response_type
2.0373	n/a	n/a	n/a	n/a	80300	8	3	0	211	3	n/a	n/a
6.022	3.5	genericItem	n/a	n/a	10301	1	3	1	212	3	n/a	n/a
10.022	3.5	genericItem	n/a	n/a	10302	1	3	2	213	3	n/a	n/a
14.0243	3.5	controlItem	n/a	n/a	10303	1	3	3	214	3	n/a	controlTrue
18.0232	3.5	genericItem	n/a	n/a	10304	1	3	4	215	3	n/a	n/a
22.0208	3.5	criticalItem	n/a	n/a	20305	2	3	5	216	3	n/a	criticalFalse
26.0209	3.5	genericItem	n/a	n/a	10306	1	3	6	217	3	n/a	n/a
30.0212	3.5	genericItem	n/a	n/a	10307	1	3	7	218	3	n/a	n/a
34.0217	3.5	genericItem	n/a	n/a	10308	1	3	8	219	3	n/a	n/a
38.0206	3.5	controlItem	n/a	n/a	10309	1	3	9	220	3	n/a	controlFoil2
42.0198	3.5	genericItem	n/a	n/a	10310	1	3	10	221	3	n/a	n/a
46.0206	3.5	genericItem	n/a	n/a	10311	1	3	11	222	3	n/a	n/a
50.0201	3.5	genericItem	n/a	n/a	10312	1	3	12	223	3	n/a	n/a
54.0204	3.5	controlItem	n/a	n/a	10313	1	3	13	224	3	n/a	controlTrue
58.0199	3.5	genericItem	n/a	n/a	10314	1	3	14	225	3	n/a	n/a
62.0203	3.5	genericItem	1	0.518	10315	1	3	15	226	3	1	n/a
66.0226	3.5	criticalItem	n/a	n/a	20316	2	3	16	227	3	n/a	criticalFalse
70.0205	3.5	controlItem	n/a	n/a	10317	1	3	17	228	3	n/a	controlTrue
74.0204	3.5	genericItem	n/a	n/a	10318	1	3	18	229	3	n/a	n/a
78.0201	3.5	criticalItem	n/a	n/a	20319	2	3	19	230	3	n/a	criticalFoil
82.0208	3.5	controlItem	n/a	n/a	10320	1	3	20	231	3	n/a	controlTrue
86.0201	3.5	genericItem	n/a	n/a	10321	1	3	21	232	3	n/a	n/a
90.0218	3.5	criticalItem	n/a	n/a	20322	2	3	22	233	3	n/a	criticalTrue
94.0211	3.5	genericItem	n/a	n/a	10323	1	3	23	234	3	n/a	n/a
98.0206	3.5	criticalItem	n/a	n/a	20324	2	3	24	235	3	n/a	criticalFalse
102.021	3.5	controlItem	n/a	n/a	10325	1	3	25	236	3	n/a	controlTrue
106.02	3.5	genericItem	n/a	n/a	10326	1	3	26	237	3	n/a	n/a
110.02	3.5	criticalItem	n/a	n/a	20327	2	3	27	238	3	n/a	criticalFalse
114.02	3.5	genericItem	n/a	n/a	10328	1	3	28	239	3	n/a	n/a
118.021	3.5	controlItem	n/a	n/a	10329	1	3	29	240	3	n/a	controlTrue
122.021	3.5	criticalItem	n/a	n/a	20330	2	3	30	241	3	n/a	criticalTrue
126.021	3.5	controlItem	n/a	n/a	10331	1	3	31	242	3	n/a	controlTrue
130.02	3.5	criticalItem	n/a	n/a	20332	2	3	32	243	3	n/a	criticalTrue
134.021	3.5	genericItem	n/a	n/a	10333	1	3	33	244	3	n/a	n/a
138.021	3.5	genericItem	n/a	n/a	10334	1	3	34	245	3	n/a	n/a
142.021	3.5	genericItem	n/a	n/a	10335	1	3	35	246	3	n/a	n/a
146.02	3.5	criticalItem	n/a	n/a	20336	2	3	36	247	3	n/a	criticalTrue
150.021	3.5	genericItem	n/a	n/a	10337	1	3	37	248	3	n/a	n/a
154.021	3.5	genericItem	n/a	n/a	10338	1	3	38	249	3	n/a	n/a
158.021	3.5	genericItem	n/a	n/a	10339	1	3	39	250	3	n/a	n/a
162.02	3.5	genericItem	n/a	n/a	10340	1	3	40	251	3	n/a	n/a
166.02	3.5	criticalItem	n/a	n/a	20341	2	3	41	252	3	n/a	criticalFalse
170.02	3.5	controlItem	n/a	n/a	10342	1	3	42	253	3	n/a	controlTrue
174.02	3.5	genericItem	n/a	n/a	10343	1	3	43	254	3	n/a	n/a
178.021	3.5	criticalItem	n/a	n/a	20344	2	3	44	255	3	n/a	criticalFalse
182.021	3.5	controlItem	n/a	n/a	10345	1	3	45	256	3	n/a	controlTrue
186.022	3.5	genericItem	1	0.599	10346	1	3	46	257	3	1	n/a
190.02	3.5	criticalItem	n/a	n/a	20347	2	3	47	258	3	n/a	criticalTrue
194.021	3.5	controlItem	n/a	n/a	10348	1	3	48	259	3	n/a	controlTrue
198.021	3.5	genericItem	n/a	n/a	10349	1	3	49	260	3	n/a	n/a
202.021	3.5	controlItem	n/a	n/a	10350	1	3	50	261	3	n/a	controlFoil2
206.022	n/a	n/a	n/a	n/a	90300	9	3	0	262	3	n/a	n/a
210.021	n/a	n/a	n/a	n/a	81000	8	10	0	263	3	n/a	n/a
214.021	3.5	genericItem	n/a	n/a	11001	1	10	1	264	3	n/a	n/a
218.021	3.5	genericItem	n/a	n/a	11002	1	10	2	265	3	n/a	n/a
222.021	3.5	criticalItem	n/a	n/a	11003	1	10	3	266	3	n/a	criticalFoil
226.021	3.5	genericItem	n/a	n/a	11004	1	10	4	267	3	n/a	n/a
230.02	3.5	criticalItem	n/a	n/a	11005	1	10	5	268	3	n/a	criticalTrue
234.02	3.5	genericItem	n/a	n/a	11006	1	10	6	269	3	n/a	n/a
238.02	3.5	genericItem	n/a	n/a	11007	1	10	7	270	3	n/a	n/a
242.021	3.5	criticalItem	n/a	n/a	11008	1	10	8	271	3	n/a	criticalFalse
246.021	3.5	genericItem	n/a	n/a	11009	1	10	9	272	3	n/a	n/a
250.02	3.5	criticalItem	n/a	n/a	11010	1	10	10	273	3	n/a	criticalFalse
254.02	3.5	genericItem	n/a	n/a	11011	1	10	11	274	3	n/a	n/a
258.021	3.5	genericItem	n/a	n/a	11012	1	10	12	275	3	n/a	n/a
262.021	3.5	genericItem	n/a	n/a	11013	1	10	13	276	3	n/a	n/a
266.021	3.5	genericItem	n/a	n/a	11014	1	10	14	277	3	n/a	n/a
270.021	3.5	criticalItem	n/a	n/a	11015	1	10	15	278	3	n/a	criticalTrue
274.021	3.5	genericItem	n/a	n/a	11016	1	10	16	279	3	n/a	n/a
278.02	3.5	controlItem	n/a	n/a	11017	1	10	17	280	3	n/a	controlFoil2
282.02	3.5	criticalItem	n/a	n/a	11018	1	10	18	281	3	n/a	criticalTrue
286.021	3.5	controlItem	n/a	n/a	11019	1	10	19	282	3	n/a	controlFoil2
290.02	3.5	criticalItem	n/a	n/a	11020	1	10	20	283	3	n/a	criticalTrue
294.021	3.5	controlItem	n/a	n/a	11021	1	10	21	284	3	n/a	controlTrue
298.02	3.5	genericItem	n/a	n/a	11022	1	10	22	285	3	n/a	n/a
302.021	3.5	criticalItem	n/a	n/a	11023	1	10	23	286	3	n/a	criticalTrue
306.02	3.5	genericItem	n/a	n/a	11024	1	10	24	287	3	n/a	n/a
310.02	3.5	genericItem	n/a	n/a	11025	1	10	25	288	3	n/a	n/a
314.02	3.5	criticalItem	n/a	n/a	11026	1	10	26	289	3	n/a	criticalFalse
318.022	3.5	genericItem	n/a	n/a	11027	1	10	27	290	3	n/a	n/a
322.02	3.5	controlItem	n/a	n/a	11028	1	10	28	291	3	n/a	controlFoil2
326.021	3.5	controlItem	n/a	n/a	11029	1	10	29	292	3	n/a	controlTrue
330.021	3.5	genericItem	n/a	n/a	11030	1	10	30	293	3	n/a	n/a
334.021	3.5	controlItem	n/a	n/a	11031	1	10	31	294	3	n/a	controlFoil1
338.021	3.5	genericItem	n/a	n/a	11032	1	10	32	295	3	n/a	n/a
342.021	3.5	criticalItem	n/a	n/a	11033	1	10	33	296	3	n/a	criticalFoil
346.021	3.5	genericItem	1	0.705	11034	1	10	34	297	3	1	n/a
350.02	3.5	criticalItem	n/a	n/a	11035	1	10	35	298	3	n/a	criticalFalse
354.019	3.5	genericItem	n/a	n/a	11036	1	10	36	299	3	n/a	n/a
358.02	3.5	controlItem	n/a	n/a	11037	1	10	37	300	3	n/a	controlTrue
362.021	3.5	controlItem	n/a	n/a	11038	1	10	38	301	3	n/a	controlFoil2
366.021	3.5	controlItem	n/a	n/a	11039	1	10	39	302	3	n/a	controlFoil2
370.02	3.5	controlItem	n/a	n/a	11040	1	10	40	303	3	n/a	controlTrue
374.02	3.5	genericItem	n/a	n/a	11041	1	10	41	304	3	n/a	n/a
378.02	3.5	genericItem	n/a	n/a	11042	1	10	42	305	3	n/a	n/a
382.021	3.5	genericItem	n/a	n/a	11043	1	10	43	306	3	n/a	n/a
386.02	3.5	genericItem	n/a	n/a	11044	1	10	44	307	3	n/a	n/a
390.02	3.5	criticalItem	n/a	n/a	11045	1	10	45	308	3	n/a	criticalFalse
394.021	3.5	controlItem	n/a	n/a	11046	1	10	46	309	3	n/a	controlFoil2
398.021	3.5	genericItem	1	0.525	11047	1	10	47	310	3	1	n/a
402.02	3.5	genericItem	n/a	n/a	11048	1	10	48	311	3	n/a	n/a
406.02	3.5	controlItem	n/a	n/a	11049	1	10	49	312	3	n/a	controlTrue
410.021	3.5	genericItem	n/a	n/a	11050	1	10	50	313	3	n/a	n/a
414.02	n/a	n/a	n/a	n/a	91000	9	10	0	314	3	n/a	n/a
418.02	n/a	n/a	n/a	n/a	90000	5	0	0	315	3	n/a	n/a
