onset	duration	trial_type	response	response_time	stim_id	stim_version	stim_events	stim_slides	trial_id	run_id	stim_redcross	subsequent_response_type
2.0289	n/a	n/a	n/a	n/a	80400	8	4	0	1	1	n/a	n/a
6.0253	3.5	genericItem	n/a	n/a	10401	1	4	1	2	1	n/a	n/a
10.0234	3.5	genericItem	n/a	n/a	10402	1	4	2	3	1	n/a	n/a
14.0239	3.5	genericItem	n/a	n/a	10403	1	4	3	4	1	n/a	n/a
18.0652	3.5	criticalItem	n/a	n/a	20404	2	4	4	5	1	n/a	criticalFalse
22.0245	3.5	genericItem	n/a	n/a	10405	1	4	5	6	1	n/a	n/a
26.0233	3.5	genericItem	n/a	n/a	10406	1	4	6	7	1	n/a	n/a
30.551	3.5	criticalItem	n/a	n/a	20407	2	4	7	8	1	n/a	criticalFalse
34.0782	3.5	genericItem	n/a	n/a	10408	1	4	8	9	1	1	n/a
38.0246	3.5	controlItem	n/a	n/a	10409	1	4	9	10	1	n/a	controlTrue
42.0234	3.5	genericItem	n/a	n/a	10410	1	4	10	11	1	n/a	n/a
46.0733	3.5	criticalItem	n/a	n/a	20411	2	4	11	12	1	n/a	criticalTrue
50.0245	3.5	controlItem	n/a	n/a	10412	1	4	12	13	1	n/a	controlTrue
54.0249	3.5	genericItem	n/a	n/a	10413	1	4	13	14	1	n/a	n/a
58.0235	3.5	genericItem	1	0.522	10414	1	4	14	15	1	1	n/a
62.0265	3.5	criticalItem	n/a	n/a	20415	2	4	15	16	1	n/a	criticalTrue
66.0237	3.5	controlItem	n/a	n/a	10416	1	4	16	17	1	n/a	controlTrue
70.3506	3.5	criticalItem	n/a	n/a	20417	2	4	17	18	1	n/a	criticalTrue
74.0227	3.5	genericItem	n/a	n/a	10418	1	4	18	19	1	n/a	n/a
78.1085	3.5	criticalItem	n/a	n/a	20419	2	4	19	20	1	n/a	criticalFalse
82.0246	3.5	genericItem	n/a	n/a	10420	1	4	20	21	1	n/a	n/a
86.0247	3.5	genericItem	n/a	n/a	10421	1	4	21	22	1	n/a	n/a
90.0237	3.5	controlItem	n/a	n/a	10422	1	4	22	23	1	n/a	controlFoil1
94.024	3.5	genericItem	n/a	n/a	10423	1	4	23	24	1	n/a	n/a
98.0847	3.5	criticalItem	n/a	n/a	20424	2	4	24	25	1	n/a	criticalFalse
102.024	3.5	controlItem	n/a	n/a	10425	1	4	25	26	1	n/a	controlTrue
106.023	3.5	genericItem	n/a	n/a	10426	1	4	26	27	1	n/a	n/a
110.024	3.5	genericItem	n/a	n/a	10427	1	4	27	28	1	n/a	n/a
114.025	3.5	genericItem	n/a	n/a	10428	1	4	28	29	1	n/a	n/a
118.075	3.5	criticalItem	n/a	n/a	20429	2	4	29	30	1	n/a	criticalTrue
122.023	3.5	controlItem	n/a	n/a	10430	1	4	30	31	1	n/a	controlFoil2
126.024	3.5	genericItem	n/a	n/a	10431	1	4	31	32	1	n/a	n/a
130.025	3.5	genericItem	n/a	n/a	10432	1	4	32	33	1	n/a	n/a
134.024	3.5	genericItem	n/a	n/a	10433	1	4	33	34	1	n/a	n/a
138.024	3.5	genericItem	n/a	n/a	10434	1	4	34	35	1	n/a	n/a
142.024	3.5	genericItem	n/a	n/a	10435	1	4	35	36	1	n/a	n/a
146.091	3.5	criticalItem	n/a	n/a	20436	2	4	36	37	1	n/a	criticalFalse
150.024	3.5	genericItem	n/a	n/a	10437	1	4	37	38	1	n/a	n/a
154.075	3.5	criticalItem	n/a	n/a	20438	2	4	38	39	1	n/a	criticalTrue
158.024	3.5	genericItem	n/a	n/a	10439	1	4	39	40	1	n/a	n/a
162.059	3.5	criticalItem	n/a	n/a	20440	2	4	40	41	1	n/a	criticalFalse
166.024	3.5	genericItem	n/a	n/a	10441	1	4	41	42	1	n/a	n/a
170.023	3.5	controlItem	n/a	n/a	10442	1	4	42	43	1	n/a	controlTrue
174.024	3.5	controlItem	n/a	n/a	10443	1	4	43	44	1	n/a	controlTrue
178.025	3.5	controlItem	n/a	n/a	10444	1	4	44	45	1	n/a	controlTrue
182.024	3.5	genericItem	n/a	n/a	10445	1	4	45	46	1	n/a	n/a
186.024	3.5	controlItem	n/a	n/a	10446	1	4	46	47	1	n/a	controlFoil2
190.025	3.5	genericItem	n/a	n/a	10447	1	4	47	48	1	n/a	n/a
194.025	3.5	controlItem	n/a	n/a	10448	1	4	48	49	1	n/a	controlFoil1
198.082	3.5	criticalItem	n/a	n/a	20449	2	4	49	50	1	n/a	criticalTrue
202.025	3.5	controlItem	n/a	n/a	10450	1	4	50	51	1	n/a	controlTrue
206.025	n/a	n/a	n/a	n/a	90400	9	4	0	52	1	n/a	n/a
210.025	n/a	n/a	n/a	n/a	81000	8	10	0	53	1	n/a	n/a
214.025	3.5	genericItem	n/a	n/a	11001	1	10	1	54	1	n/a	n/a
218.023	3.5	genericItem	n/a	n/a	11002	1	10	2	55	1	n/a	n/a
222.025	3.5	criticalItem	n/a	n/a	11003	1	10	3	56	1	n/a	criticalFoil
226.024	3.5	genericItem	n/a	n/a	11004	1	10	4	57	1	n/a	n/a
230.024	3.5	criticalItem	n/a	n/a	11005	1	10	5	58	1	n/a	criticalTrue
234.024	3.5	genericItem	n/a	n/a	11006	1	10	6	59	1	n/a	n/a
238.025	3.5	genericItem	n/a	n/a	11007	1	10	7	60	1	n/a	n/a
242.025	3.5	criticalItem	n/a	n/a	11008	1	10	8	61	1	n/a	criticalFalse
246.026	3.5	genericItem	1	0.556	11009	1	10	9	62	1	1	n/a
250.024	3.5	criticalItem	n/a	n/a	11010	1	10	10	63	1	n/a	criticalFalse
254.025	3.5	genericItem	n/a	n/a	11011	1	10	11	64	1	n/a	n/a
258.024	3.5	genericItem	n/a	n/a	11012	1	10	12	65	1	n/a	n/a
262.025	3.5	genericItem	n/a	n/a	11013	1	10	13	66	1	n/a	n/a
266.024	3.5	genericItem	n/a	n/a	11014	1	10	14	67	1	n/a	n/a
270.025	3.5	criticalItem	n/a	n/a	11015	1	10	15	68	1	n/a	criticalFalse
274.025	3.5	genericItem	n/a	n/a	11016	1	10	16	69	1	n/a	n/a
278.025	3.5	controlItem	n/a	n/a	11017	1	10	17	70	1	n/a	controlFoil2
282.023	3.5	criticalItem	n/a	n/a	11018	1	10	18	71	1	n/a	criticalTrue
286.026	3.5	controlItem	n/a	n/a	11019	1	10	19	72	1	n/a	controlTrue
290.026	3.5	criticalItem	n/a	n/a	11020	1	10	20	73	1	n/a	criticalFalse
294.025	3.5	controlItem	n/a	n/a	11021	1	10	21	74	1	n/a	controlTrue
298.024	3.5	genericItem	n/a	n/a	11022	1	10	22	75	1	n/a	n/a
302.031	3.5	criticalItem	n/a	n/a	11023	1	10	23	76	1	n/a	criticalFalse
306.024	3.5	genericItem	n/a	n/a	11024	1	10	24	77	1	n/a	n/a
310.024	3.5	genericItem	n/a	n/a	11025	1	10	25	78	1	n/a	n/a
314.024	3.5	criticalItem	n/a	n/a	11026	1	10	26	79	1	n/a	criticalFalse
318.025	3.5	genericItem	n/a	n/a	11027	1	10	27	80	1	n/a	n/a
322.025	3.5	controlItem	n/a	n/a	11028	1	10	28	81	1	n/a	controlTrue
326.024	3.5	controlItem	n/a	n/a	11029	1	10	29	82	1	n/a	controlFoil1
330.024	3.5	genericItem	n/a	n/a	11030	1	10	30	83	1	n/a	n/a
334.025	3.5	controlItem	n/a	n/a	11031	1	10	31	84	1	n/a	controlFoil2
338.024	3.5	genericItem	n/a	n/a	11032	1	10	32	85	1	n/a	n/a
342.025	3.5	criticalItem	n/a	n/a	11033	1	10	33	86	1	n/a	criticalTrue
346.023	3.5	genericItem	n/a	n/a	11034	1	10	34	87	1	n/a	n/a
350.024	3.5	criticalItem	n/a	n/a	11035	1	10	35	88	1	n/a	criticalTrue
354.024	3.5	genericItem	n/a	n/a	11036	1	10	36	89	1	n/a	n/a
358.024	3.5	controlItem	n/a	n/a	11037	1	10	37	90	1	n/a	controlTrue
362.024	3.5	controlItem	n/a	n/a	11038	1	10	38	91	1	n/a	controlTrue
366.024	3.5	controlItem	n/a	n/a	11039	1	10	39	92	1	n/a	controlTrue
370.025	3.5	controlItem	n/a	n/a	11040	1	10	40	93	1	n/a	controlTrue
374.023	3.5	genericItem	n/a	n/a	11041	1	10	41	94	1	n/a	n/a
378.024	3.5	genericItem	n/a	n/a	11042	1	10	42	95	1	n/a	n/a
382.024	3.5	genericItem	1	0.535	11043	1	10	43	96	1	1	n/a
386.025	3.5	genericItem	n/a	n/a	11044	1	10	44	97	1	n/a	n/a
390.025	3.5	criticalItem	n/a	n/a	11045	1	10	45	98	1	n/a	criticalTrue
394.024	3.5	controlItem	n/a	n/a	11046	1	10	46	99	1	n/a	controlFoil2
398.025	3.5	genericItem	n/a	n/a	11047	1	10	47	100	1	n/a	n/a
402.024	3.5	genericItem	n/a	n/a	11048	1	10	48	101	1	n/a	n/a
406.025	3.5	controlItem	n/a	n/a	11049	1	10	49	102	1	n/a	controlTrue
410.024	3.5	genericItem	n/a	n/a	11050	1	10	50	103	1	n/a	n/a
414.024	n/a	n/a	n/a	n/a	91000	9	10	0	104	1	n/a	n/a
418.024	n/a	n/a	n/a	n/a	90000	5	0	0	105	1	n/a	n/a
