onset	duration	trial_type	response	response_time	stim_id	stim_events	stim_slides	trial_id	run_id	stim_type	response_type
2.00827	n/a	n/a	n/a	n/a	80500	5	0	445	4	8	n/a
12.0073	3.5	controlItem	n/a	n/a	10514	5	14	446	4	1	n/a
15.4916	3.0	controlItem	n/a	n/a	20514	5	14	447	4	0	n/a
18.4911	3.0	controlItem	True	0.352	20514	5	14	448	4	2	controlTrue
22.0062	3.5	criticalItem	n/a	n/a	10531	5	31	449	4	1	n/a
25.4905	3.0	criticalItem	ForbiddenKey	2.648	50531	5	31	450	4	0	n/a
28.4899	3.0	criticalItem	False	0.35	50531	5	31	451	4	5	criticalFalse
32.0061	3.5	criticalItem	n/a	n/a	10505	5	5	452	4	1	n/a
35.4887	3.0	criticalItem	n/a	n/a	50505	5	5	453	4	0	n/a
38.4888	3.0	criticalItem	False	0.418	50505	5	5	454	4	5	criticalFalse
42.0046	3.5	criticalItem	n/a	n/a	10516	5	16	455	4	1	n/a
45.4885	3.0	criticalItem	n/a	n/a	20516	5	16	456	4	0	n/a
48.4883	3.0	criticalItem	False	0.299	20516	5	16	457	4	2	criticalFalse
52.0043	3.5	controlItem	n/a	n/a	10525	5	25	458	4	1	n/a
55.4874	3.0	controlItem	n/a	n/a	30525	5	25	459	4	0	n/a
58.4873	3.0	controlItem	True	0.31	30525	5	25	460	4	3	controlTrue
62.0025	3.5	controlItem	n/a	n/a	10522	5	22	461	4	1	n/a
65.4854	3.0	controlItem	n/a	n/a	20522	5	22	462	4	0	n/a
68.4851	3.0	controlItem	Foil2	0.364	20522	5	22	463	4	2	controlFoil2
72.0027	3.5	criticalItem	n/a	n/a	10547	5	47	464	4	1	n/a
75.4855	3.0	criticalItem	n/a	n/a	40547	5	47	465	4	0	n/a
78.4843	3.0	criticalItem	False	0.351	40547	5	47	466	4	4	criticalFalse
82.0012	3.5	criticalItem	n/a	n/a	10539	5	39	467	4	1	n/a
85.4862	3.0	criticalItem	n/a	n/a	40539	5	39	468	4	0	n/a
88.4828	3.0	criticalItem	True	0.709	40539	5	39	469	4	4	criticalTrue
92.0001	3.5	controlItem	n/a	n/a	10518	5	18	470	4	1	n/a
95.4823	3.0	controlItem	n/a	n/a	20518	5	18	471	4	0	n/a
98.4819	3.0	controlItem	True	0.244	20518	5	18	472	4	2	controlTrue
101.999	3.5	controlItem	n/a	n/a	10549	5	49	473	4	1	n/a
105.482	3.0	controlItem	n/a	n/a	30549	5	49	474	4	0	n/a
108.482	3.0	controlItem	Foil2	0.74	30549	5	49	475	4	3	controlFoil2
112.014	3.5	criticalItem	n/a	n/a	10503	5	3	476	4	1	n/a
115.498	3.0	criticalItem	n/a	n/a	70503	5	3	477	4	0	n/a
118.497	3.0	criticalItem	False	0.488	70503	5	3	478	4	7	criticalFalse
122.015	3.5	controlItem	n/a	n/a	10532	5	32	479	4	1	n/a
125.497	3.0	controlItem	n/a	n/a	20532	5	32	480	4	0	n/a
128.497	3.0	controlItem	True	0.456	20532	5	32	481	4	2	controlTrue
132.012	3.5	controlItem	n/a	n/a	10515	5	15	482	4	1	n/a
135.496	3.0	controlItem	n/a	n/a	30515	5	15	483	4	0	n/a
138.496	3.0	controlItem	Foil2	0.343	30515	5	15	484	4	3	controlFoil2
142.011	3.5	controlItem	n/a	n/a	10546	5	46	485	4	1	n/a
145.495	3.0	controlItem	n/a	n/a	70546	5	46	486	4	0	n/a
148.494	3.0	controlItem	True	2.076	70546	5	46	487	4	7	controlTrue
152.01	3.5	criticalItem	n/a	n/a	10526	5	26	488	4	1	n/a
155.494	3.0	criticalItem	n/a	n/a	20526	5	26	489	4	0	n/a
158.493	3.0	criticalItem	False	0.311	20526	5	26	490	4	2	criticalFalse
162.01	3.5	controlItem	n/a	n/a	10517	5	17	491	4	1	n/a
165.493	3.0	controlItem	n/a	n/a	20517	5	17	492	4	0	n/a
168.493	3.0	controlItem	Foil1	0.36	20517	5	17	493	4	2	controlFoil1
172.008	3.5	criticalItem	n/a	n/a	10550	5	50	494	4	1	n/a
175.493	3.0	criticalItem	n/a	n/a	20550	5	50	495	4	0	n/a
178.492	3.0	criticalItem	True	0.532	20550	5	50	496	4	2	criticalTrue
182.007	3.5	criticalItem	n/a	n/a	10519	5	19	497	4	1	n/a
185.49	3.0	criticalItem	n/a	n/a	40519	5	19	498	4	0	n/a
188.491	3.0	criticalItem	False	0.302	40519	5	19	499	4	4	criticalFalse
192.007	3.5	controlItem	n/a	n/a	10524	5	24	500	4	1	n/a
195.49	3.0	controlItem	n/a	n/a	20524	5	24	501	4	0	n/a
198.49	3.0	controlItem	Foil1	0.355	20524	5	24	502	4	2	controlFoil1
202.006	3.5	criticalItem	n/a	n/a	10521	5	21	503	4	1	n/a
205.489	3.0	criticalItem	n/a	n/a	60521	5	21	504	4	0	n/a
208.489	3.0	criticalItem	False	0.316	60521	5	21	505	4	6	criticalFalse
212.005	3.5	criticalItem	n/a	n/a	10523	5	23	506	4	1	n/a
215.488	3.0	criticalItem	n/a	n/a	60523	5	23	507	4	0	n/a
218.487	3.0	criticalItem	Foil	0.335	60523	5	23	508	4	6	criticalFoil
222.005	3.5	criticalItem	n/a	n/a	10541	5	41	509	4	1	n/a
225.488	3.0	criticalItem	n/a	n/a	70541	5	41	510	4	0	n/a
228.486	3.0	criticalItem	True	0.108	70541	5	41	511	4	7	criticalTrue
232.003	3.5	controlItem	n/a	n/a	10542	5	42	512	4	1	n/a
235.486	3.0	controlItem	n/a	n/a	40542	5	42	513	4	0	n/a
238.487	3.0	controlItem	Foil1	0.661	40542	5	42	514	4	4	controlFoil1
242.002	3.5	controlItem	n/a	n/a	10527	5	27	515	4	1	n/a
245.485	3.0	controlItem	n/a	n/a	20527	5	27	516	4	0	n/a
248.484	3.0	controlItem	True	0.367	20527	5	27	517	4	2	controlTrue
252.002	n/a	n/a	n/a	n/a	90500	5	0	518	4	9	n/a
256.001	n/a	n/a	n/a	n/a	80100	1	0	519	4	8	n/a
266	3.5	controlItem	n/a	n/a	10132	1	32	520	4	1	n/a
269.482	3.0	controlItem	n/a	n/a	40132	1	32	521	4	0	n/a
272.482	3.0	controlItem	Foil2	0.501	40132	1	32	522	4	4	controlFoil2
276.016	3.5	criticalItem	n/a	n/a	10122	1	22	523	4	1	n/a
279.499	3.0	criticalItem	n/a	n/a	60122	1	22	524	4	0	n/a
282.497	3.0	criticalItem	False	0.262	60122	1	22	525	4	6	criticalFalse
286.014	3.5	criticalItem	n/a	n/a	10117	1	17	526	4	1	n/a
289.497	3.0	criticalItem	n/a	n/a	60117	1	17	527	4	0	n/a
292.496	3.0	criticalItem	Foil	2.015	60117	1	17	528	4	6	criticalFoil
296.012	3.5	criticalItem	n/a	n/a	10136	1	36	529	4	1	n/a
299.497	3.0	criticalItem	n/a	n/a	60136	1	36	530	4	0	n/a
302.496	3.0	criticalItem	True	0.355	60136	1	36	531	4	6	criticalTrue
306.012	3.5	controlItem	n/a	n/a	10140	1	40	532	4	1	n/a
309.495	3.0	controlItem	n/a	n/a	40140	1	40	533	4	0	n/a
312.495	3.0	controlItem	True	0.358	40140	1	40	534	4	4	controlTrue
316.01	3.5	criticalItem	n/a	n/a	10131	1	31	535	4	1	n/a
319.494	3.0	criticalItem	n/a	n/a	30131	1	31	536	4	0	n/a
322.493	3.0	criticalItem	False	0.36	30131	1	31	537	4	3	criticalFalse
326.009	3.5	controlItem	n/a	n/a	10146	1	46	538	4	1	n/a
329.493	3.0	controlItem	n/a	n/a	30146	1	46	539	4	0	n/a
332.493	3.0	controlItem	True	0.363	30146	1	46	540	4	3	controlTrue
336.009	3.5	controlItem	n/a	n/a	10116	1	16	541	4	1	n/a
339.493	3.0	controlItem	n/a	n/a	20116	1	16	542	4	0	n/a
342.492	3.0	controlItem	Foil1	0.337	20116	1	16	543	4	2	controlFoil1
346.009	3.5	criticalItem	n/a	n/a	10110	1	10	544	4	1	n/a
349.492	3.0	criticalItem	n/a	n/a	40110	1	10	545	4	0	n/a
352.491	3.0	criticalItem	True	0.407	40110	1	10	546	4	4	criticalTrue
356.007	3.5	controlItem	n/a	n/a	10125	1	25	547	4	1	n/a
359.49	3.0	controlItem	n/a	n/a	40125	1	25	548	4	0	n/a
362.489	3.0	controlItem	True	0.249	40125	1	25	549	4	4	controlTrue
366.005	3.5	criticalItem	n/a	n/a	10150	1	50	550	4	1	n/a
369.49	3.0	criticalItem	n/a	n/a	60150	1	50	551	4	0	n/a
372.489	3.0	criticalItem	True	0.276	60150	1	50	552	4	6	criticalTrue
376.004	3.5	criticalItem	n/a	n/a	10141	1	41	553	4	1	n/a
379.488	3.0	criticalItem	n/a	n/a	30141	1	41	554	4	0	n/a
382.488	3.0	criticalItem	False	0.321	30141	1	41	555	4	3	criticalFalse
386.003	3.5	controlItem	n/a	n/a	10107	1	7	556	4	1	n/a
389.486	3.0	controlItem	n/a	n/a	70107	1	7	557	4	0	n/a
392.487	3.0	controlItem	True	0.764	70107	1	7	558	4	7	controlTrue
396.002	3.5	controlItem	n/a	n/a	10104	1	4	559	4	1	n/a
399.487	3.0	controlItem	n/a	n/a	70104	1	4	560	4	0	n/a
402.485	3.0	controlItem	True	0.355	70104	1	4	561	4	7	controlTrue
406.003	3.5	criticalItem	n/a	n/a	10126	1	26	562	4	1	n/a
409.485	3.0	criticalItem	n/a	n/a	30126	1	26	563	4	0	n/a
412.485	3.0	criticalItem	False	0.361	30126	1	26	564	4	3	criticalFalse
416.001	3.5	controlItem	n/a	n/a	10149	1	49	565	4	1	n/a
419.483	3.0	controlItem	n/a	n/a	60149	1	49	566	4	0	n/a
422.483	3.0	controlItem	Foil2	0.533	60149	1	49	567	4	6	controlFoil2
425.999	3.5	criticalItem	n/a	n/a	10112	1	12	568	4	1	n/a
429.483	3.0	criticalItem	n/a	n/a	70112	1	12	569	4	0	n/a
432.482	3.0	criticalItem	True	0.432	70112	1	12	570	4	7	criticalTrue
436.015	3.5	controlItem	n/a	n/a	10118	1	18	571	4	1	n/a
439.499	3.0	controlItem	n/a	n/a	60118	1	18	572	4	0	n/a
442.498	3.0	controlItem	True	0.277	60118	1	18	573	4	6	controlTrue
446.015	3.5	controlItem	n/a	n/a	10124	1	24	574	4	1	n/a
449.498	3.0	controlItem	n/a	n/a	30124	1	24	575	4	0	n/a
452.498	3.0	controlItem	True	0.606	30124	1	24	576	4	3	controlTrue
456.013	3.5	criticalItem	n/a	n/a	10114	1	14	577	4	1	n/a
459.497	3.0	criticalItem	n/a	n/a	40114	1	14	578	4	0	n/a
462.496	3.0	criticalItem	False	1.271	40114	1	14	579	4	4	criticalFalse
466.013	3.5	controlItem	n/a	n/a	10123	1	23	580	4	1	n/a
469.495	3.0	controlItem	n/a	n/a	40123	1	23	581	4	0	n/a
472.495	3.0	controlItem	Foil1	0.359	40123	1	23	582	4	4	controlFoil1
476.012	3.5	controlItem	n/a	n/a	10121	1	21	583	4	1	n/a
479.494	3.0	controlItem	n/a	n/a	20121	1	21	584	4	0	n/a
482.493	3.0	controlItem	True	0.318	20121	1	21	585	4	2	controlTrue
486.01	3.5	criticalItem	n/a	n/a	10119	1	19	586	4	1	n/a
489.494	3.0	criticalItem	n/a	n/a	40119	1	19	587	4	0	n/a
492.493	3.0	criticalItem	True	0.959	40119	1	19	588	4	4	criticalTrue
496.01	3.5	criticalItem	n/a	n/a	10128	1	28	589	4	1	n/a
499.492	3.0	criticalItem	n/a	n/a	20128	1	28	590	4	0	n/a
502.492	3.0	criticalItem	Foil	0.247	20128	1	28	591	4	2	criticalFoil
506.007	n/a	n/a	n/a	n/a	90100	1	0	592	4	9	n/a
