onset	duration	trial_type	response	response_time	stim_id	stim_version	stim_events	stim_slides	trial_id	run_id	stim_redcross	subsequent_response_type
2.0336	n/a	n/a	n/a	n/a	80700	8	7	0	211	3	n/a	n/a
6.0251	3.5	genericItem	n/a	n/a	10701	1	7	1	212	3	n/a	n/a
10.0233	3.5	genericItem	n/a	n/a	10702	1	7	2	213	3	n/a	n/a
14.0239	3.5	controlItem	n/a	n/a	10703	1	7	3	214	3	n/a	controlTrue
18.0245	3.5	criticalItem	n/a	n/a	20704	2	7	4	215	3	n/a	criticalFoil
22.0241	3.5	controlItem	n/a	n/a	10705	1	7	5	216	3	n/a	controlFoil2
26.0226	3.5	genericItem	n/a	n/a	10706	1	7	6	217	3	n/a	n/a
30.0236	3.5	controlItem	n/a	n/a	10707	1	7	7	218	3	n/a	controlFoil2
34.0229	3.5	controlItem	n/a	n/a	10708	1	7	8	219	3	n/a	controlTrue
38.0237	3.5	criticalItem	n/a	n/a	20709	2	7	9	220	3	n/a	criticalFalse
42.0241	3.5	genericItem	n/a	n/a	10710	1	7	10	221	3	n/a	n/a
46.023	3.5	controlItem	n/a	n/a	10711	1	7	11	222	3	n/a	controlFoil1
50.0242	3.5	criticalItem	n/a	n/a	20712	2	7	12	223	3	n/a	criticalTrue
54.0234	3.5	genericItem	n/a	n/a	10713	1	7	13	224	3	n/a	n/a
58.0236	3.5	controlItem	n/a	n/a	10714	1	7	14	225	3	n/a	controlFoil1
62.023	3.5	genericItem	1	0.727	10715	1	7	15	226	3	1	n/a
66.0234	3.5	genericItem	n/a	n/a	10716	1	7	16	227	3	n/a	n/a
70.0233	3.5	genericItem	n/a	n/a	10717	1	7	17	228	3	n/a	n/a
74.0248	3.5	controlItem	n/a	n/a	10718	1	7	18	229	3	n/a	controlTrue
78.0243	3.5	criticalItem	n/a	n/a	20719	2	7	19	230	3	n/a	criticalTrue
82.0248	3.5	controlItem	n/a	n/a	10720	1	7	20	231	3	n/a	controlTrue
86.0248	3.5	criticalItem	n/a	n/a	20721	2	7	21	232	3	n/a	criticalFalse
90.0253	3.5	genericItem	n/a	n/a	10722	1	7	22	233	3	n/a	n/a
94.024	3.5	genericItem	1	0.736	10723	1	7	23	234	3	1	n/a
98.0234	3.5	genericItem	n/a	n/a	10724	1	7	24	235	3	n/a	n/a
102.023	3.5	genericItem	n/a	n/a	10725	1	7	25	236	3	n/a	n/a
106.024	3.5	criticalItem	n/a	n/a	20726	2	7	26	237	3	n/a	criticalFalse
110.023	3.5	genericItem	n/a	n/a	10727	1	7	27	238	3	n/a	n/a
114.023	3.5	controlItem	n/a	n/a	10728	1	7	28	239	3	n/a	controlTrue
118.023	3.5	criticalItem	n/a	n/a	20729	2	7	29	240	3	n/a	criticalTrue
122.025	3.5	genericItem	n/a	n/a	10730	1	7	30	241	3	n/a	n/a
126.024	3.5	genericItem	n/a	n/a	10731	1	7	31	242	3	n/a	n/a
130.024	3.5	genericItem	n/a	n/a	10732	1	7	32	243	3	n/a	n/a
134.023	3.5	genericItem	n/a	n/a	10733	1	7	33	244	3	n/a	n/a
138.024	3.5	controlItem	n/a	n/a	10734	1	7	34	245	3	n/a	controlTrue
142.023	3.5	criticalItem	n/a	n/a	20735	2	7	35	246	3	n/a	criticalFalse
146.025	3.5	genericItem	n/a	n/a	10736	1	7	36	247	3	n/a	n/a
150.023	3.5	genericItem	n/a	n/a	10737	1	7	37	248	3	n/a	n/a
154.024	3.5	genericItem	n/a	n/a	10738	1	7	38	249	3	n/a	n/a
158.023	3.5	criticalItem	n/a	n/a	20739	2	7	39	250	3	n/a	criticalTrue
162.024	3.5	controlItem	n/a	n/a	10740	1	7	40	251	3	n/a	controlFoil1
166.024	3.5	genericItem	n/a	n/a	10741	1	7	41	252	3	n/a	n/a
170.024	3.5	genericItem	n/a	n/a	10742	1	7	42	253	3	n/a	n/a
174.023	3.5	genericItem	n/a	n/a	10743	1	7	43	254	3	n/a	n/a
178.024	3.5	criticalItem	n/a	n/a	20744	2	7	44	255	3	n/a	criticalFalse
182.023	3.5	genericItem	n/a	n/a	10745	1	7	45	256	3	n/a	n/a
186.024	3.5	criticalItem	n/a	n/a	20746	2	7	46	257	3	n/a	criticalFalse
190.024	3.5	genericItem	n/a	n/a	10747	1	7	47	258	3	n/a	n/a
194.024	3.5	genericItem	n/a	n/a	10748	1	7	48	259	3	n/a	n/a
198.024	3.5	criticalItem	n/a	n/a	20749	2	7	49	260	3	n/a	criticalFalse
202.025	3.5	controlItem	n/a	n/a	10750	1	7	50	261	3	n/a	controlTrue
206.02	n/a	n/a	n/a	n/a	90700	9	7	0	262	3	n/a	n/a
210.02	n/a	n/a	n/a	n/a	80500	8	5	0	263	3	n/a	n/a
214.024	3.5	genericItem	n/a	n/a	10501	1	5	1	264	3	n/a	n/a
218.024	3.5	genericItem	n/a	n/a	10502	1	5	2	265	3	n/a	n/a
222.023	3.5	criticalItem	n/a	n/a	10503	1	5	3	266	3	n/a	criticalFalse
226.024	3.5	genericItem	n/a	n/a	10504	1	5	4	267	3	n/a	n/a
230.023	3.5	criticalItem	n/a	n/a	10505	1	5	5	268	3	n/a	criticalFoil
234.025	3.5	genericItem	n/a	n/a	10506	1	5	6	269	3	n/a	n/a
238.024	3.5	genericItem	1	0.766	10507	1	5	7	270	3	1	n/a
242.024	3.5	genericItem	n/a	n/a	10508	1	5	8	271	3	n/a	n/a
246.023	3.5	genericItem	n/a	n/a	10509	1	5	9	272	3	n/a	n/a
250.025	3.5	genericItem	n/a	n/a	10510	1	5	10	273	3	n/a	n/a
254.023	3.5	genericItem	n/a	n/a	10511	1	5	11	274	3	n/a	n/a
258.024	3.5	genericItem	n/a	n/a	10512	1	5	12	275	3	n/a	n/a
262.023	3.5	genericItem	n/a	n/a	10513	1	5	13	276	3	n/a	n/a
266.024	3.5	controlItem	n/a	n/a	10514	1	5	14	277	3	n/a	controlFoil1
270.024	3.5	controlItem	n/a	n/a	10515	1	5	15	278	3	n/a	controlFoil1
274.024	3.5	criticalItem	n/a	n/a	10516	1	5	16	279	3	n/a	criticalFalse
278.024	3.5	controlItem	n/a	n/a	10517	1	5	17	280	3	n/a	controlFoil1
282.023	3.5	controlItem	n/a	n/a	10518	1	5	18	281	3	n/a	controlTrue
286.024	3.5	criticalItem	n/a	n/a	10519	1	5	19	282	3	n/a	criticalFalse
290.024	3.5	genericItem	1	0.875	10520	1	5	20	283	3	1	n/a
294.024	3.5	criticalItem	n/a	n/a	10521	1	5	21	284	3	n/a	criticalFalse
298.024	3.5	controlItem	n/a	n/a	10522	1	5	22	285	3	n/a	controlTrue
302.024	3.5	criticalItem	n/a	n/a	10523	1	5	23	286	3	n/a	criticalTrue
306.024	3.5	controlItem	n/a	n/a	10524	1	5	24	287	3	n/a	controlTrue
310.025	3.5	controlItem	n/a	n/a	10525	1	5	25	288	3	n/a	controlTrue
314.024	3.5	criticalItem	n/a	n/a	10526	1	5	26	289	3	n/a	criticalFoil
318.024	3.5	controlItem	n/a	n/a	10527	1	5	27	290	3	n/a	controlTrue
322.023	3.5	genericItem	n/a	n/a	10528	1	5	28	291	3	n/a	n/a
326.023	3.5	genericItem	n/a	n/a	10529	1	5	29	292	3	n/a	n/a
330.023	3.5	genericItem	1	0.874	10530	1	5	30	293	3	1	n/a
334.023	3.5	criticalItem	n/a	n/a	10531	1	5	31	294	3	n/a	criticalTrue
338.023	3.5	controlItem	n/a	n/a	10532	1	5	32	295	3	n/a	controlTrue
342.025	3.5	genericItem	n/a	n/a	10533	1	5	33	296	3	n/a	n/a
346.023	3.5	genericItem	1	1.01	10534	1	5	34	297	3	1	n/a
350.022	3.5	genericItem	n/a	n/a	10535	1	5	35	298	3	n/a	n/a
354.023	3.5	genericItem	n/a	n/a	10536	1	5	36	299	3	n/a	n/a
358.024	3.5	genericItem	n/a	n/a	10537	1	5	37	300	3	n/a	n/a
362.024	3.5	genericItem	n/a	n/a	10538	1	5	38	301	3	n/a	n/a
366.026	3.5	criticalItem	n/a	n/a	10539	1	5	39	302	3	n/a	criticalFoil
370.023	3.5	genericItem	n/a	n/a	10540	1	5	40	303	3	n/a	n/a
374.025	3.5	criticalItem	n/a	n/a	10541	1	5	41	304	3	n/a	criticalFalse
378.023	3.5	controlItem	n/a	n/a	10542	1	5	42	305	3	n/a	controlTrue
382.023	3.5	genericItem	n/a	n/a	10543	1	5	43	306	3	n/a	n/a
386.023	3.5	genericItem	n/a	n/a	10544	1	5	44	307	3	n/a	n/a
390.023	3.5	genericItem	n/a	n/a	10545	1	5	45	308	3	n/a	n/a
394.025	3.5	controlItem	n/a	n/a	10546	1	5	46	309	3	n/a	controlTrue
398.024	3.5	criticalItem	n/a	n/a	10547	1	5	47	310	3	n/a	criticalTrue
402.023	3.5	genericItem	n/a	n/a	10548	1	5	48	311	3	n/a	n/a
406.024	3.5	controlItem	n/a	n/a	10549	1	5	49	312	3	n/a	controlTrue
410.025	3.5	criticalItem	n/a	n/a	10550	1	5	50	313	3	n/a	criticalTrue
414.02	n/a	n/a	n/a	n/a	90500	9	5	0	314	3	n/a	n/a
418.019	n/a	n/a	n/a	n/a	90000	9	0	0	315	3	n/a	n/a
