onset	duration	trial_type	response	response_time	stim_id	stim_version	stim_events	stim_slides	trial_id	run_id	stim_redcross	subsequent_response_type
2.0277	n/a	n/a	n/a	n/a	80100	8	1	0	1	1	n/a	n/a
6.0284	3.5	genericItem	n/a	n/a	10101	1	1	1	2	1	n/a	n/a
10.0277	3.5	genericItem	n/a	n/a	10102	1	1	2	3	1	n/a	n/a
14.0276	3.5	genericItem	n/a	n/a	10103	1	1	3	4	1	n/a	n/a
18.0283	3.5	controlItem	n/a	n/a	10104	1	1	4	5	1	n/a	controlTrue
22.0303	3.5	genericItem	n/a	n/a	10105	1	1	5	6	1	n/a	n/a
26.0279	3.5	genericItem	n/a	n/a	10106	1	1	6	7	1	n/a	n/a
30.0274	3.5	controlItem	n/a	n/a	10107	1	1	7	8	1	n/a	controlFoil2
34.0285	3.5	genericItem	n/a	n/a	10108	1	1	8	9	1	n/a	n/a
38.0288	3.5	genericItem	n/a	n/a	10109	1	1	9	10	1	n/a	n/a
42.0476	3.5	criticalItem	n/a	n/a	10110	1	1	10	11	1	n/a	criticalTrue
46.0305	3.5	genericItem	n/a	n/a	10111	1	1	11	12	1	n/a	n/a
50.0445	3.5	criticalItem	n/a	n/a	10112	1	1	12	13	1	n/a	criticalTrue
54.0292	3.5	genericItem	n/a	n/a	10113	1	1	13	14	1	n/a	n/a
58.0479	3.5	criticalItem	n/a	n/a	10114	1	1	14	15	1	n/a	criticalTrue
62.0288	3.5	genericItem	n/a	n/a	10115	1	1	15	16	1	n/a	n/a
66.0302	3.5	controlItem	n/a	n/a	10116	1	1	16	17	1	n/a	controlFoil1
70.0437	3.5	criticalItem	n/a	n/a	10117	1	1	17	18	1	n/a	criticalFalse
74.0283	3.5	controlItem	n/a	n/a	10118	1	1	18	19	1	n/a	controlTrue
78.0465	3.5	criticalItem	n/a	n/a	10119	1	1	19	20	1	n/a	criticalFoil
82.0285	3.5	genericItem	n/a	n/a	10120	1	1	20	21	1	n/a	n/a
86.0273	3.5	controlItem	n/a	n/a	10121	1	1	21	22	1	n/a	controlFoil2
90.0477	3.5	criticalItem	n/a	n/a	10122	1	1	22	23	1	n/a	criticalFalse
94.0283	3.5	controlItem	n/a	n/a	10123	1	1	23	24	1	n/a	controlTrue
98.0283	3.5	controlItem	n/a	n/a	10124	1	1	24	25	1	n/a	controlTrue
102.027	3.5	controlItem	n/a	n/a	10125	1	1	25	26	1	n/a	controlFoil1
106.062	3.5	criticalItem	n/a	n/a	10126	1	1	26	27	1	n/a	criticalFalse
110.03	3.5	genericItem	n/a	n/a	10127	1	1	27	28	1	n/a	n/a
114.049	3.5	criticalItem	n/a	n/a	10128	1	1	28	29	1	n/a	criticalTrue
118.027	3.5	genericItem	n/a	n/a	10129	1	1	29	30	1	n/a	n/a
122.029	3.5	genericItem	n/a	n/a	10130	1	1	30	31	1	n/a	n/a
126.052	3.5	criticalItem	n/a	n/a	10131	1	1	31	32	1	n/a	criticalTrue
130.026	3.5	controlItem	n/a	n/a	10132	1	1	32	33	1	n/a	controlFoil2
134.03	3.5	genericItem	n/a	n/a	10133	1	1	33	34	1	n/a	n/a
138.029	3.5	genericItem	1	0.079	10134	1	1	34	35	1	1	n/a
142.032	3.5	genericItem	1	0.136	10135	1	1	35	36	1	1	n/a
146.047	3.5	criticalItem	n/a	n/a	10136	1	1	36	37	1	n/a	criticalFalse
150.029	3.5	genericItem	1	0.243	10137	1	1	37	38	1	1	n/a
154.03	3.5	genericItem	n/a	n/a	10138	1	1	38	39	1	n/a	n/a
158.03	3.5	genericItem	n/a	n/a	10139	1	1	39	40	1	n/a	n/a
162.028	3.5	controlItem	n/a	n/a	10140	1	1	40	41	1	n/a	controlTrue
166.048	3.5	criticalItem	n/a	n/a	10141	1	1	41	42	1	n/a	criticalFalse
170.027	3.5	genericItem	n/a	n/a	10142	1	1	42	43	1	n/a	n/a
174.027	3.5	genericItem	n/a	n/a	10143	1	1	43	44	1	n/a	n/a
178.026	3.5	genericItem	n/a	n/a	10144	1	1	44	45	1	n/a	n/a
182.025	3.5	genericItem	n/a	n/a	10145	1	1	45	46	1	n/a	n/a
186.027	3.5	controlItem	n/a	n/a	10146	1	1	46	47	1	n/a	controlTrue
190.029	3.5	genericItem	n/a	n/a	10147	1	1	47	48	1	n/a	n/a
194.028	3.5	genericItem	n/a	n/a	10148	1	1	48	49	1	n/a	n/a
198.027	3.5	controlItem	n/a	n/a	10149	1	1	49	50	1	n/a	controlFoil1
202.048	3.5	criticalItem	n/a	n/a	10150	1	1	50	51	1	n/a	criticalFalse
206.021	n/a	n/a	n/a	n/a	90100	9	1	0	52	1	n/a	n/a
210.022	n/a	n/a	n/a	n/a	80400	8	4	0	53	1	n/a	n/a
214.028	3.5	genericItem	1	0.203	10401	1	4	1	54	1	1	n/a
218.027	3.5	genericItem	n/a	n/a	10402	1	4	2	55	1	n/a	n/a
222.026	3.5	genericItem	n/a	n/a	10403	1	4	3	56	1	n/a	n/a
226.042	3.5	criticalItem	n/a	n/a	20404	2	4	4	57	1	n/a	criticalTrue
230.027	3.5	genericItem	n/a	n/a	10405	1	4	5	58	1	n/a	n/a
234.028	3.5	genericItem	n/a	n/a	10406	1	4	6	59	1	n/a	n/a
238.065	3.5	criticalItem	n/a	n/a	20407	2	4	7	60	1	n/a	criticalFalse
242.028	3.5	genericItem	1	0.249	10408	1	4	8	61	1	1	n/a
246.027	3.5	controlItem	n/a	n/a	10409	1	4	9	62	1	n/a	controlTrue
250.027	3.5	genericItem	n/a	n/a	10410	1	4	10	63	1	n/a	n/a
254.077	3.5	criticalItem	n/a	n/a	20411	2	4	11	64	1	n/a	criticalFalse
258.027	3.5	controlItem	n/a	n/a	10412	1	4	12	65	1	n/a	controlTrue
262.027	3.5	genericItem	n/a	n/a	10413	1	4	13	66	1	n/a	n/a
266.026	3.5	genericItem	n/a	n/a	10414	1	4	14	67	1	n/a	n/a
270.049	3.5	criticalItem	n/a	n/a	20415	2	4	15	68	1	n/a	criticalTrue
274.027	3.5	controlItem	n/a	n/a	10416	1	4	16	69	1	n/a	n/a
278.046	3.5	criticalItem	n/a	n/a	20417	2	4	17	70	1	n/a	criticalFalse
282.025	3.5	genericItem	1	0.698	10418	1	4	18	71	1	1	n/a
286.041	3.5	criticalItem	n/a	n/a	20419	2	4	19	72	1	n/a	criticalFoil
290.027	3.5	genericItem	n/a	n/a	10420	1	4	20	73	1	n/a	n/a
294.026	3.5	genericItem	n/a	n/a	10421	1	4	21	74	1	n/a	n/a
298.028	3.5	controlItem	n/a	n/a	10422	1	4	22	75	1	n/a	controlFoil1
302.027	3.5	genericItem	n/a	n/a	10423	1	4	23	76	1	n/a	n/a
306.058	3.5	criticalItem	n/a	n/a	20424	2	4	24	77	1	n/a	criticalFalse
310.027	3.5	controlItem	n/a	n/a	10425	1	4	25	78	1	n/a	controlFoil1
314.025	3.5	genericItem	n/a	n/a	10426	1	4	26	79	1	n/a	n/a
318.026	3.5	genericItem	n/a	n/a	10427	1	4	27	80	1	n/a	n/a
322.025	3.5	genericItem	n/a	n/a	10428	1	4	28	81	1	n/a	n/a
326.042	3.5	criticalItem	n/a	n/a	20429	2	4	29	82	1	n/a	criticalFalse
330.026	3.5	controlItem	n/a	n/a	10430	1	4	30	83	1	n/a	controlTrue
334.025	3.5	genericItem	n/a	n/a	10431	1	4	31	84	1	n/a	n/a
338.026	3.5	genericItem	n/a	n/a	10432	1	4	32	85	1	n/a	n/a
342.025	3.5	genericItem	n/a	n/a	10433	1	4	33	86	1	n/a	n/a
346.024	3.5	genericItem	1	0.728	10434	1	4	34	87	1	1	n/a
350.025	3.5	genericItem	n/a	n/a	10435	1	4	35	88	1	n/a	n/a
354.039	3.5	criticalItem	n/a	n/a	20436	2	4	36	89	1	n/a	criticalTrue
358.025	3.5	genericItem	n/a	n/a	10437	1	4	37	90	1	n/a	n/a
362.047	3.5	criticalItem	n/a	n/a	20438	2	4	38	91	1	n/a	criticalTrue
366.024	3.5	genericItem	n/a	n/a	10439	1	4	39	92	1	n/a	n/a
370.073	3.5	criticalItem	n/a	n/a	20440	2	4	40	93	1	n/a	criticalFoil
374.026	3.5	genericItem	n/a	n/a	10441	1	4	41	94	1	n/a	n/a
378.028	3.5	controlItem	n/a	n/a	10442	1	4	42	95	1	n/a	controlTrue
382.024	3.5	controlItem	n/a	n/a	10443	1	4	43	96	1	n/a	controlTrue
386.025	3.5	controlItem	n/a	n/a	10444	1	4	44	97	1	n/a	controlFoil1
390.024	3.5	genericItem	n/a	n/a	10445	1	4	45	98	1	n/a	n/a
394.027	3.5	controlItem	n/a	n/a	10446	1	4	46	99	1	n/a	controlTrue
398.025	3.5	genericItem	n/a	n/a	10447	1	4	47	100	1	n/a	n/a
402.025	3.5	controlItem	n/a	n/a	10448	1	4	48	101	1	n/a	controlTrue
406.063	3.5	criticalItem	n/a	n/a	20449	2	4	49	102	1	n/a	criticalFalse
410.024	3.5	controlItem	n/a	n/a	10450	1	4	50	103	1	n/a	controlTrue
414.02	n/a	n/a	n/a	n/a	90400	9	4	0	104	1	n/a	n/a
418.02	n/a	n/a	n/a	n/a	90000	9	0	0	105	1	n/a	n/a
