onset	duration	trial_type	response	response_time	stim_id	stim_version	stim_events	stim_slides	trial_id	run_id	stim_redcross	subsequent_response_type
2.0324	n/a	n/a	n/a	n/a	81000	8	10	0	316	4	n/a	n/a
6.0273	3.5	genericItem	n/a	n/a	11001	1	10	1	317	4	n/a	n/a
10.028	3.5	genericItem	n/a	n/a	11002	1	10	2	318	4	n/a	n/a
14.0308	3.5	criticalItem	n/a	n/a	11003	1	10	3	319	4	n/a	criticalTrue
18.0264	3.5	genericItem	n/a	n/a	11004	1	10	4	320	4	n/a	n/a
22.0288	3.5	criticalItem	n/a	n/a	11005	1	10	5	321	4	n/a	criticalTrue
26.0266	3.5	genericItem	n/a	n/a	11006	1	10	6	322	4	n/a	n/a
30.0264	3.5	genericItem	1	0.514	11007	1	10	7	323	4	1	n/a
34.0261	3.5	criticalItem	n/a	n/a	11008	1	10	8	324	4	n/a	criticalTrue
38.0251	3.5	genericItem	n/a	n/a	11009	1	10	9	325	4	n/a	n/a
42.0284	3.5	criticalItem	n/a	n/a	11010	1	10	10	326	4	n/a	criticalFalse
46.0261	3.5	genericItem	n/a	n/a	11011	1	10	11	327	4	n/a	n/a
50.0256	3.5	genericItem	n/a	n/a	11012	1	10	12	328	4	n/a	n/a
54.0271	3.5	genericItem	n/a	n/a	11013	1	10	13	329	4	n/a	n/a
58.0265	3.5	genericItem	n/a	n/a	11014	1	10	14	330	4	n/a	n/a
62.0278	3.5	criticalItem	n/a	n/a	11015	1	10	15	331	4	n/a	criticalTrue
66.0274	3.5	genericItem	n/a	n/a	11016	1	10	16	332	4	n/a	n/a
70.0281	3.5	controlItem	n/a	n/a	11017	1	10	17	333	4	n/a	controlFoil2
74.0281	3.5	criticalItem	n/a	n/a	11018	1	10	18	334	4	n/a	criticalFalse
78.0286	3.5	controlItem	n/a	n/a	11019	1	10	19	335	4	n/a	controlTrue
82.0275	3.5	criticalItem	n/a	n/a	11020	1	10	20	336	4	n/a	criticalTrue
86.0283	3.5	controlItem	n/a	n/a	11021	1	10	21	337	4	n/a	controlTrue
90.0289	3.5	genericItem	1	0.663	11022	1	10	22	338	4	1	n/a
94.0266	3.5	criticalItem	n/a	n/a	11023	1	10	23	339	4	n/a	criticalTrue
98.026	3.5	genericItem	n/a	n/a	11024	1	10	24	340	4	n/a	n/a
102.026	3.5	genericItem	n/a	n/a	11025	1	10	25	341	4	n/a	n/a
106.027	3.5	criticalItem	n/a	n/a	11026	1	10	26	342	4	n/a	criticalFalse
110.027	3.5	genericItem	n/a	n/a	11027	1	10	27	343	4	n/a	n/a
114.026	3.5	controlItem	n/a	n/a	11028	1	10	28	344	4	n/a	controlTrue
118.025	3.5	controlItem	n/a	n/a	11029	1	10	29	345	4	n/a	controlFoil2
122.026	3.5	genericItem	n/a	n/a	11030	1	10	30	346	4	n/a	n/a
126.026	3.5	controlItem	n/a	n/a	11031	1	10	31	347	4	n/a	controlFoil2
130.027	3.5	genericItem	n/a	n/a	11032	1	10	32	348	4	n/a	n/a
134.026	3.5	criticalItem	n/a	n/a	11033	1	10	33	349	4	n/a	criticalFalse
138.027	3.5	genericItem	n/a	n/a	11034	1	10	34	350	4	n/a	n/a
142.028	3.5	criticalItem	n/a	n/a	11035	1	10	35	351	4	n/a	criticalFoil
146.027	3.5	genericItem	n/a	n/a	11036	1	10	36	352	4	n/a	n/a
150.027	3.5	controlItem	n/a	n/a	11037	1	10	37	353	4	n/a	controlTrue
154.028	3.5	controlItem	n/a	n/a	11038	1	10	38	354	4	n/a	controlFoil2
158.028	3.5	controlItem	n/a	n/a	11039	1	10	39	355	4	n/a	controlTrue
162.027	3.5	controlItem	n/a	n/a	11040	1	10	40	356	4	n/a	controlTrue
166.029	3.5	genericItem	n/a	n/a	11041	1	10	41	357	4	n/a	n/a
170.026	3.5	genericItem	n/a	n/a	11042	1	10	42	358	4	n/a	n/a
174.027	3.5	genericItem	n/a	n/a	11043	1	10	43	359	4	n/a	n/a
178.027	3.5	genericItem	n/a	n/a	11044	1	10	44	360	4	n/a	n/a
182.029	3.5	criticalItem	n/a	n/a	11045	1	10	45	361	4	n/a	criticalFalse
186.028	3.5	controlItem	n/a	n/a	11046	1	10	46	362	4	n/a	controlTrue
190.026	3.5	genericItem	1	0.57	11047	1	10	47	363	4	1	n/a
194.027	3.5	genericItem	n/a	n/a	11048	1	10	48	364	4	n/a	n/a
198.027	3.5	controlItem	n/a	n/a	11049	1	10	49	365	4	n/a	controlTrue
202.027	3.5	genericItem	n/a	n/a	11050	1	10	50	366	4	n/a	n/a
206.023	n/a	n/a	n/a	n/a	91000	9	10	0	367	4	n/a	n/a
210.024	n/a	n/a	n/a	n/a	80200	8	2	0	368	4	n/a	n/a
214.031	3.5	genericItem	n/a	n/a	10201	1	2	1	369	4	n/a	n/a
218.031	3.5	genericItem	n/a	n/a	10202	1	2	2	370	4	n/a	n/a
222.031	3.5	genericItem	n/a	n/a	10203	1	2	3	371	4	n/a	n/a
226.028	3.5	controlItem	n/a	n/a	10204	1	2	4	372	4	n/a	controlTrue
230.029	3.5	controlItem	n/a	n/a	10205	1	2	5	373	4	n/a	controlTrue
234.029	3.5	genericItem	n/a	n/a	10206	1	2	6	374	4	n/a	n/a
238.029	3.5	controlItem	n/a	n/a	10207	1	2	7	375	4	n/a	controlFoil2
242.027	3.5	genericItem	n/a	n/a	10208	1	2	8	376	4	n/a	n/a
246.027	3.5	genericItem	n/a	n/a	10209	1	2	9	377	4	n/a	n/a
250.027	3.5	genericItem	n/a	n/a	10210	1	2	10	378	4	n/a	n/a
254.027	3.5	genericItem	n/a	n/a	10211	1	2	11	379	4	n/a	n/a
258.029	3.5	genericItem	n/a	n/a	10212	1	2	12	380	4	n/a	n/a
262.03	3.5	genericItem	n/a	n/a	10213	1	2	13	381	4	n/a	n/a
266.029	3.5	criticalItem	n/a	n/a	10214	1	2	14	382	4	n/a	criticalTrue
270.029	3.5	genericItem	n/a	n/a	10215	1	2	15	383	4	n/a	n/a
274.028	3.5	genericItem	n/a	n/a	10216	1	2	16	384	4	n/a	n/a
278.029	3.5	controlItem	n/a	n/a	10217	1	2	17	385	4	n/a	controlFoil1
282.028	3.5	genericItem	n/a	n/a	10218	1	2	18	386	4	n/a	n/a
286.03	3.5	criticalItem	n/a	n/a	10219	1	2	19	387	4	n/a	criticalFoil
290.028	3.5	genericItem	n/a	n/a	10220	1	2	20	388	4	n/a	n/a
294.029	3.5	genericItem	n/a	n/a	10221	1	2	21	389	4	n/a	n/a
298.029	3.5	controlItem	n/a	n/a	10222	1	2	22	390	4	n/a	controlTrue
302.029	3.5	criticalItem	n/a	n/a	10223	1	2	23	391	4	n/a	criticalFoil
306.028	3.5	genericItem	n/a	n/a	10224	1	2	24	392	4	n/a	n/a
310.028	3.5	criticalItem	n/a	n/a	10225	1	2	25	393	4	n/a	criticalTrue
314.029	3.5	genericItem	1	0.617	10226	1	2	26	394	4	1	n/a
318.029	3.5	genericItem	n/a	n/a	10227	1	2	27	395	4	n/a	n/a
322.029	3.5	criticalItem	n/a	n/a	10228	1	2	28	396	4	n/a	criticalFalse
326.028	3.5	genericItem	1	0.429	10229	1	2	29	397	4	1	n/a
330.028	3.5	controlItem	n/a	n/a	10230	1	2	30	398	4	n/a	controlTrue
334.029	3.5	criticalItem	n/a	n/a	10231	1	2	31	399	4	n/a	criticalTrue
338.028	3.5	controlItem	n/a	n/a	10232	1	2	32	400	4	n/a	controlFoil1
342.028	3.5	genericItem	n/a	n/a	10233	1	2	33	401	4	n/a	n/a
346.029	3.5	criticalItem	n/a	n/a	10234	1	2	34	402	4	n/a	criticalTrue
350.026	3.5	controlItem	n/a	n/a	10235	1	2	35	403	4	n/a	controlTrue
354.028	3.5	criticalItem	n/a	n/a	10236	1	2	36	404	4	n/a	criticalFoil
358.031	3.5	controlItem	n/a	n/a	10237	1	2	37	405	4	n/a	controlTrue
362.028	3.5	criticalItem	n/a	n/a	10238	1	2	38	406	4	n/a	criticalTrue
366.028	3.5	genericItem	n/a	n/a	10239	1	2	39	407	4	n/a	n/a
370.029	3.5	genericItem	n/a	n/a	10240	1	2	40	408	4	n/a	n/a
374.028	3.5	criticalItem	n/a	n/a	10241	1	2	41	409	4	n/a	criticalTrue
378.028	3.5	controlItem	n/a	n/a	10242	1	2	42	410	4	n/a	controlFoil1
382.027	3.5	genericItem	n/a	n/a	10243	1	2	43	411	4	n/a	n/a
386.027	3.5	genericItem	1	0.335	10244	1	2	44	412	4	1	n/a
390.029	3.5	criticalItem	n/a	n/a	10245	1	2	45	413	4	n/a	criticalFalse
394.029	3.5	controlItem	n/a	n/a	10246	1	2	46	414	4	n/a	controlFoil1
398.031	3.5	genericItem	n/a	n/a	10247	1	2	47	415	4	n/a	n/a
402.032	3.5	controlItem	n/a	n/a	10248	1	2	48	416	4	n/a	controlFoil2
406.031	3.5	criticalItem	n/a	n/a	10249	1	2	49	417	4	n/a	criticalTrue
410.032	3.5	genericItem	1	0.715	10250	1	2	50	418	4	1	n/a
414.022	n/a	n/a	n/a	n/a	90200	9	2	0	419	4	n/a	n/a
418.023	n/a	n/a	n/a	n/a	90000	9	0	0	420	4	n/a	n/a
