onset	duration	trial_type	response	response_time	stim_id	stim_version	stim_events	stim_slides	trial_id	run_id	stim_redcross	subsequent_response_type
2.0378	n/a	n/a	n/a	n/a	80700	8	7	0	106	2	n/a	n/a
6.0293	3.5	genericItem	n/a	n/a	10701	1	7	1	107	2	n/a	n/a
10.0271	3.5	genericItem	n/a	n/a	10702	1	7	2	108	2	n/a	n/a
14.0284	3.5	controlItem	n/a	n/a	10703	1	7	3	109	2	n/a	controlFoil1
18.0271	3.5	criticalItem	n/a	n/a	20704	2	7	4	110	2	n/a	criticalTrue
22.0273	3.5	controlItem	n/a	n/a	10705	1	7	5	111	2	n/a	controlTrue
26.0268	3.5	genericItem	n/a	n/a	10706	1	7	6	112	2	n/a	n/a
30.0272	3.5	controlItem	n/a	n/a	10707	1	7	7	113	2	n/a	controlTrue
34.0276	3.5	controlItem	n/a	n/a	10708	1	7	8	114	2	n/a	controlTrue
38.0275	3.5	criticalItem	n/a	n/a	20709	2	7	9	115	2	n/a	criticalTrue
42.0281	3.5	genericItem	n/a	n/a	10710	1	7	10	116	2	n/a	n/a
46.0276	3.5	controlItem	n/a	n/a	10711	1	7	11	117	2	n/a	controlTrue
50.027	3.5	criticalItem	n/a	n/a	20712	2	7	12	118	2	n/a	criticalFalse
54.0272	3.5	genericItem	n/a	n/a	10713	1	7	13	119	2	n/a	n/a
58.0276	3.5	controlItem	n/a	n/a	10714	1	7	14	120	2	n/a	controlFoil1
62.0269	3.5	genericItem	n/a	n/a	10715	1	7	15	121	2	n/a	n/a
66.0267	3.5	genericItem	n/a	n/a	10716	1	7	16	122	2	n/a	n/a
70.0268	3.5	genericItem	1	2.045	10717	1	7	17	123	2	1	n/a
74.028	3.5	controlItem	n/a	n/a	10718	1	7	18	124	2	n/a	controlTrue
78.028	3.5	criticalItem	n/a	n/a	20719	2	7	19	125	2	n/a	criticalFalse
82.0286	3.5	controlItem	n/a	n/a	10720	1	7	20	126	2	n/a	controlTrue
86.0273	3.5	criticalItem	n/a	n/a	20721	2	7	21	127	2	n/a	criticalFoil
90.0282	3.5	genericItem	n/a	n/a	10722	1	7	22	128	2	1	n/a
94.0278	3.5	genericItem	n/a	n/a	10723	1	7	23	129	2	n/a	n/a
98.0283	3.5	genericItem	n/a	n/a	10724	1	7	24	130	2	n/a	n/a
102.028	3.5	genericItem	n/a	n/a	10725	1	7	25	131	2	1	n/a
106.027	3.5	criticalItem	n/a	n/a	20726	2	7	26	132	2	n/a	criticalFalse
110.026	3.5	genericItem	n/a	n/a	10727	1	7	27	133	2	n/a	n/a
114.026	3.5	controlItem	n/a	n/a	10728	1	7	28	134	2	n/a	controlTrue
118.026	3.5	criticalItem	n/a	n/a	20729	2	7	29	135	2	n/a	criticalTrue
122.028	3.5	genericItem	n/a	n/a	10730	1	7	30	136	2	n/a	n/a
126.028	3.5	genericItem	n/a	n/a	10731	1	7	31	137	2	n/a	n/a
130.027	3.5	genericItem	n/a	n/a	10732	1	7	32	138	2	n/a	n/a
134.027	3.5	genericItem	n/a	n/a	10733	1	7	33	139	2	n/a	n/a
138.027	3.5	controlItem	n/a	n/a	10734	1	7	34	140	2	n/a	controlFoil2
142.027	3.5	criticalItem	n/a	n/a	20735	2	7	35	141	2	n/a	criticalFalse
146.029	3.5	genericItem	n/a	n/a	10736	1	7	36	142	2	1	n/a
150.027	3.5	genericItem	n/a	n/a	10737	1	7	37	143	2	n/a	n/a
154.027	3.5	genericItem	n/a	n/a	10738	1	7	38	144	2	n/a	n/a
158.027	3.5	criticalItem	n/a	n/a	20739	2	7	39	145	2	n/a	criticalFoil
162.027	3.5	controlItem	n/a	n/a	10740	1	7	40	146	2	n/a	controlFoil1
166.027	3.5	genericItem	n/a	n/a	10741	1	7	41	147	2	n/a	n/a
170.027	3.5	genericItem	n/a	n/a	10742	1	7	42	148	2	n/a	n/a
174.026	3.5	genericItem	n/a	n/a	10743	1	7	43	149	2	n/a	n/a
178.027	3.5	criticalItem	n/a	n/a	20744	2	7	44	150	2	n/a	criticalTrue
182.028	3.5	genericItem	n/a	n/a	10745	1	7	45	151	2	n/a	n/a
186.027	3.5	criticalItem	n/a	n/a	20746	2	7	46	152	2	n/a	criticalTrue
190.029	3.5	genericItem	ForbiddenKey	1.753	10747	1	7	47	153	2	n/a	n/a
194.027	3.5	genericItem	n/a	n/a	10748	1	7	48	154	2	n/a	n/a
198.027	3.5	criticalItem	n/a	n/a	20749	2	7	49	155	2	n/a	criticalFoil
202.03	3.5	controlItem	n/a	n/a	10750	1	7	50	156	2	n/a	controlTrue
206.024	n/a	n/a	n/a	n/a	90700	9	7	0	157	2	n/a	n/a
210.023	n/a	n/a	n/a	n/a	81000	8	10	0	158	2	n/a	n/a
214.028	3.5	genericItem	n/a	n/a	11001	1	10	1	159	2	n/a	n/a
218.028	3.5	genericItem	n/a	n/a	11002	1	10	2	160	2	n/a	n/a
222.03	3.5	criticalItem	n/a	n/a	11003	1	10	3	161	2	n/a	criticalTrue
226.027	3.5	genericItem	n/a	n/a	11004	1	10	4	162	2	n/a	n/a
230.03	3.5	criticalItem	n/a	n/a	11005	1	10	5	163	2	n/a	criticalFalse
234.029	3.5	genericItem	n/a	n/a	11006	1	10	6	164	2	n/a	n/a
238.029	3.5	genericItem	n/a	n/a	11007	1	10	7	165	2	n/a	n/a
242.029	3.5	criticalItem	n/a	n/a	11008	1	10	8	166	2	n/a	criticalFalse
246.03	3.5	genericItem	n/a	n/a	11009	1	10	9	167	2	n/a	n/a
250.03	3.5	criticalItem	n/a	n/a	11010	1	10	10	168	2	n/a	criticalFalse
254.028	3.5	genericItem	n/a	n/a	11011	1	10	11	169	2	n/a	n/a
258.027	3.5	genericItem	n/a	n/a	11012	1	10	12	170	2	n/a	n/a
262.026	3.5	genericItem	n/a	n/a	11013	1	10	13	171	2	n/a	n/a
266.026	3.5	genericItem	ForbiddenKey	1.834	11014	1	10	14	172	2	n/a	n/a
270.034	3.5	criticalItem	n/a	n/a	11015	1	10	15	173	2	n/a	criticalFalse
274.027	3.5	genericItem	n/a	n/a	11016	1	10	16	174	2	n/a	n/a
278.03	3.5	controlItem	n/a	n/a	11017	1	10	17	175	2	n/a	controlFoil2
282.029	3.5	criticalItem	n/a	n/a	11018	1	10	18	176	2	n/a	criticalFalse
286.029	3.5	controlItem	n/a	n/a	11019	1	10	19	177	2	n/a	controlFoil2
290.029	3.5	criticalItem	n/a	n/a	11020	1	10	20	178	2	n/a	criticalFalse
294.028	3.5	controlItem	n/a	n/a	11021	1	10	21	179	2	n/a	controlFoil1
298.028	3.5	genericItem	n/a	n/a	11022	1	10	22	180	2	n/a	n/a
302.027	3.5	criticalItem	n/a	n/a	11023	1	10	23	181	2	n/a	criticalFalse
306.027	3.5	genericItem	n/a	n/a	11024	1	10	24	182	2	n/a	n/a
310.028	3.5	genericItem	n/a	n/a	11025	1	10	25	183	2	1	n/a
314.028	3.5	criticalItem	n/a	n/a	11026	1	10	26	184	2	n/a	criticalFalse
318.028	3.5	genericItem	n/a	n/a	11027	1	10	27	185	2	n/a	n/a
322.026	3.5	controlItem	n/a	n/a	11028	1	10	28	186	2	n/a	controlTrue
326.025	3.5	controlItem	n/a	n/a	11029	1	10	29	187	2	n/a	controlFoil1
330.026	3.5	genericItem	n/a	n/a	11030	1	10	30	188	2	n/a	n/a
334.026	3.5	controlItem	n/a	n/a	11031	1	10	31	189	2	n/a	controlFoil1
338.027	3.5	genericItem	1	0.187	11032	1	10	32	190	2	1	n/a
342.029	3.5	criticalItem	n/a	n/a	11033	1	10	33	191	2	n/a	criticalTrue
346.027	3.5	genericItem	n/a	n/a	11034	1	10	34	192	2	n/a	n/a
350.029	3.5	criticalItem	n/a	n/a	11035	1	10	35	193	2	n/a	criticalTrue
354.027	3.5	genericItem	n/a	n/a	11036	1	10	36	194	2	n/a	n/a
358.027	3.5	controlItem	n/a	n/a	11037	1	10	37	195	2	n/a	controlFoil1
362.028	3.5	controlItem	n/a	n/a	11038	1	10	38	196	2	n/a	controlFoil1
366.029	3.5	controlItem	n/a	n/a	11039	1	10	39	197	2	n/a	controlFoil1
370.028	3.5	controlItem	n/a	n/a	11040	1	10	40	198	2	n/a	controlFoil1
374.027	3.5	genericItem	n/a	n/a	11041	1	10	41	199	2	n/a	n/a
378.027	3.5	genericItem	n/a	n/a	11042	1	10	42	200	2	n/a	n/a
382.028	3.5	genericItem	n/a	n/a	11043	1	10	43	201	2	n/a	n/a
386.027	3.5	genericItem	n/a	n/a	11044	1	10	44	202	2	n/a	n/a
390.029	3.5	criticalItem	n/a	n/a	11045	1	10	45	203	2	n/a	criticalFalse
394.033	3.5	controlItem	n/a	n/a	11046	1	10	46	204	2	n/a	controlTrue
398.027	3.5	genericItem	n/a	n/a	11047	1	10	47	205	2	n/a	n/a
402.027	3.5	genericItem	n/a	n/a	11048	1	10	48	206	2	n/a	n/a
406.028	3.5	controlItem	n/a	n/a	11049	1	10	49	207	2	n/a	controlTrue
410.028	3.5	genericItem	n/a	n/a	11050	1	10	50	208	2	n/a	n/a
414.023	n/a	n/a	n/a	n/a	91000	9	10	0	209	2	n/a	n/a
418.024	n/a	n/a	n/a	n/a	90000	9	0	0	210	2	n/a	n/a
