onset	duration	trial_type	response	response_time	stim_id	stim_version	stim_events	stim_slides	trial_id	run_id	stim_redcross	subsequent_response_type
2.03	n/a	n/a	n/a	n/a	80500	8	5	0	211	3	n/a	n/a
6.0243	3.5	genericItem	n/a	n/a	10501	1	5	1	212	3	n/a	n/a
10.0241	3.5	genericItem	n/a	n/a	10502	1	5	2	213	3	n/a	n/a
14.0239	3.5	criticalItem	n/a	n/a	10503	1	5	3	214	3	n/a	criticalFalse
18.0242	3.5	genericItem	n/a	n/a	10504	1	5	4	215	3	n/a	n/a
22.0236	3.5	criticalItem	n/a	n/a	10505	1	5	5	216	3	n/a	criticalFalse
26.0238	3.5	genericItem	n/a	n/a	10506	1	5	6	217	3	n/a	n/a
30.0224	3.5	genericItem	n/a	n/a	10507	1	5	7	218	3	n/a	n/a
34.0239	3.5	genericItem	n/a	n/a	10508	1	5	8	219	3	n/a	n/a
38.024	3.5	genericItem	n/a	n/a	10509	1	5	9	220	3	n/a	n/a
42.0235	3.5	genericItem	n/a	n/a	10510	1	5	10	221	3	n/a	n/a
46.0242	3.5	genericItem	n/a	n/a	10511	1	5	11	222	3	n/a	n/a
50.0238	3.5	genericItem	n/a	n/a	10512	1	5	12	223	3	n/a	n/a
54.0234	3.5	genericItem	n/a	n/a	10513	1	5	13	224	3	n/a	n/a
58.0228	3.5	controlItem	n/a	n/a	10514	1	5	14	225	3	n/a	controlTrue
62.0242	3.5	controlItem	n/a	n/a	10515	1	5	15	226	3	n/a	controlFoil2
66.0238	3.5	criticalItem	n/a	n/a	10516	1	5	16	227	3	n/a	criticalFalse
70.0232	3.5	controlItem	n/a	n/a	10517	1	5	17	228	3	n/a	controlFoil1
74.0237	3.5	controlItem	n/a	n/a	10518	1	5	18	229	3	n/a	controlTrue
78.0237	3.5	criticalItem	n/a	n/a	10519	1	5	19	230	3	n/a	criticalTrue
82.0241	3.5	genericItem	1	0.682	10520	1	5	20	231	3	1	n/a
86.0234	3.5	criticalItem	n/a	n/a	10521	1	5	21	232	3	n/a	criticalFoil
90.0242	3.5	controlItem	n/a	n/a	10522	1	5	22	233	3	n/a	controlFoil2
94.0234	3.5	criticalItem	n/a	n/a	10523	1	5	23	234	3	n/a	criticalFalse
98.0232	3.5	controlItem	n/a	n/a	10524	1	5	24	235	3	n/a	controlTrue
102.024	3.5	controlItem	n/a	n/a	10525	1	5	25	236	3	n/a	controlTrue
106.023	3.5	criticalItem	n/a	n/a	10526	1	5	26	237	3	n/a	criticalTrue
110.024	3.5	controlItem	n/a	n/a	10527	1	5	27	238	3	n/a	controlTrue
114.034	3.5	genericItem	n/a	n/a	10528	1	5	28	239	3	n/a	n/a
118.024	3.5	genericItem	n/a	n/a	10529	1	5	29	240	3	n/a	n/a
122.023	3.5	genericItem	n/a	n/a	10530	1	5	30	241	3	n/a	n/a
126.023	3.5	criticalItem	n/a	n/a	10531	1	5	31	242	3	n/a	criticalTrue
130.023	3.5	controlItem	n/a	n/a	10532	1	5	32	243	3	n/a	controlTrue
134.024	3.5	genericItem	n/a	n/a	10533	1	5	33	244	3	n/a	n/a
138.023	3.5	genericItem	n/a	n/a	10534	1	5	34	245	3	n/a	n/a
142.024	3.5	genericItem	n/a	n/a	10535	1	5	35	246	3	n/a	n/a
146.024	3.5	genericItem	n/a	n/a	10536	1	5	36	247	3	n/a	n/a
150.025	3.5	genericItem	n/a	n/a	10537	1	5	37	248	3	n/a	n/a
154.023	3.5	genericItem	n/a	n/a	10538	1	5	38	249	3	n/a	n/a
158.024	3.5	criticalItem	n/a	n/a	10539	1	5	39	250	3	n/a	criticalFalse
162.024	3.5	genericItem	1	0.666	10540	1	5	40	251	3	1	n/a
166.024	3.5	criticalItem	n/a	n/a	10541	1	5	41	252	3	n/a	criticalTrue
170.024	3.5	controlItem	n/a	n/a	10542	1	5	42	253	3	n/a	n/a
174.024	3.5	genericItem	n/a	n/a	10543	1	5	43	254	3	n/a	n/a
178.023	3.5	genericItem	n/a	n/a	10544	1	5	44	255	3	n/a	n/a
182.024	3.5	genericItem	n/a	n/a	10545	1	5	45	256	3	n/a	n/a
186.023	3.5	controlItem	n/a	n/a	10546	1	5	46	257	3	n/a	controlTrue
190.023	3.5	criticalItem	n/a	n/a	10547	1	5	47	258	3	n/a	criticalFalse
194.024	3.5	genericItem	n/a	n/a	10548	1	5	48	259	3	n/a	n/a
198.024	3.5	controlItem	n/a	n/a	10549	1	5	49	260	3	n/a	controlFoil1
202.024	3.5	criticalItem	n/a	n/a	10550	1	5	50	261	3	n/a	criticalFalse
206.024	n/a	n/a	n/a	n/a	90500	9	5	0	262	3	n/a	n/a
210.023	n/a	n/a	n/a	n/a	80700	8	7	0	263	3	n/a	n/a
214.024	3.5	genericItem	n/a	n/a	10701	1	7	1	264	3	n/a	n/a
218.024	3.5	genericItem	n/a	n/a	10702	1	7	2	265	3	n/a	n/a
222.024	3.5	controlItem	n/a	n/a	10703	1	7	3	266	3	n/a	controlFoil2
226.061	3.5	criticalItem	n/a	n/a	10704	1	7	4	267	3	n/a	criticalTrue
230.023	3.5	controlItem	n/a	n/a	10705	1	7	5	268	3	n/a	controlTrue
234.024	3.5	genericItem	1	2.785	10706	1	7	6	269	3	1	n/a
238.023	3.5	controlItem	n/a	n/a	10707	1	7	7	270	3	n/a	controlFoil2
242.023	3.5	controlItem	n/a	n/a	10708	1	7	8	271	3	n/a	controlTrue
246.076	3.5	criticalItem	n/a	n/a	10709	1	7	9	272	3	n/a	criticalFalse
250.024	3.5	genericItem	n/a	n/a	10710	1	7	10	273	3	n/a	n/a
254.023	3.5	controlItem	n/a	n/a	10711	1	7	11	274	3	n/a	controlTrue
258.085	3.5	criticalItem	n/a	n/a	10712	1	7	12	275	3	n/a	criticalTrue
262.023	3.5	genericItem	n/a	n/a	10713	1	7	13	276	3	n/a	n/a
266.024	3.5	controlItem	n/a	n/a	10714	1	7	14	277	3	n/a	controlFoil2
270.024	3.5	genericItem	n/a	n/a	10715	1	7	15	278	3	n/a	n/a
274.024	3.5	genericItem	n/a	n/a	10716	1	7	16	279	3	n/a	n/a
278.024	3.5	genericItem	n/a	n/a	10717	1	7	17	280	3	n/a	n/a
282.024	3.5	controlItem	n/a	n/a	10718	1	7	18	281	3	n/a	controlTrue
286.061	3.5	criticalItem	n/a	n/a	10719	1	7	19	282	3	n/a	criticalFoil
290.024	3.5	controlItem	n/a	n/a	10720	1	7	20	283	3	n/a	controlTrue
294.079	3.5	criticalItem	n/a	n/a	10721	1	7	21	284	3	n/a	criticalFalse
298.024	3.5	genericItem	n/a	n/a	10722	1	7	22	285	3	n/a	n/a
302.023	3.5	genericItem	n/a	n/a	10723	1	7	23	286	3	n/a	n/a
306.023	3.5	genericItem	n/a	n/a	10724	1	7	24	287	3	1	n/a
310.024	3.5	genericItem	n/a	n/a	10725	1	7	25	288	3	n/a	n/a
314.056	3.5	criticalItem	n/a	n/a	10726	1	7	26	289	3	n/a	criticalFalse
318.024	3.5	genericItem	n/a	n/a	10727	1	7	27	290	3	n/a	n/a
322.023	3.5	controlItem	n/a	n/a	10728	1	7	28	291	3	n/a	controlTrue
326.063	3.5	criticalItem	n/a	n/a	10729	1	7	29	292	3	n/a	criticalTrue
330.024	3.5	genericItem	n/a	n/a	10730	1	7	30	293	3	n/a	n/a
334.023	3.5	genericItem	n/a	n/a	10731	1	7	31	294	3	n/a	n/a
338.024	3.5	genericItem	n/a	n/a	10732	1	7	32	295	3	n/a	n/a
342.024	3.5	genericItem	n/a	n/a	10733	1	7	33	296	3	n/a	n/a
346.024	3.5	controlItem	n/a	n/a	10734	1	7	34	297	3	n/a	controlTrue
350.064	3.5	criticalItem	n/a	n/a	10735	1	7	35	298	3	n/a	criticalFoil
354.024	3.5	genericItem	n/a	n/a	10736	1	7	36	299	3	1	n/a
358.024	3.5	genericItem	n/a	n/a	10737	1	7	37	300	3	n/a	n/a
362.024	3.5	genericItem	n/a	n/a	10738	1	7	38	301	3	n/a	n/a
366.025	3.5	criticalItem	n/a	n/a	10739	1	7	39	302	3	n/a	criticalFalse
370.024	3.5	controlItem	n/a	n/a	10740	1	7	40	303	3	n/a	controlFoil1
374.024	3.5	genericItem	n/a	n/a	10741	1	7	41	304	3	n/a	n/a
378.023	3.5	genericItem	n/a	n/a	10742	1	7	42	305	3	n/a	n/a
382.024	3.5	genericItem	n/a	n/a	10743	1	7	43	306	3	n/a	n/a
386.079	3.5	criticalItem	n/a	n/a	10744	1	7	44	307	3	n/a	criticalTrue
390.025	3.5	genericItem	n/a	n/a	10745	1	7	45	308	3	n/a	n/a
394.059	3.5	criticalItem	n/a	n/a	10746	1	7	46	309	3	n/a	criticalFalse
398.023	3.5	genericItem	n/a	n/a	10747	1	7	47	310	3	n/a	n/a
402.024	3.5	genericItem	n/a	n/a	10748	1	7	48	311	3	n/a	n/a
406.058	3.5	criticalItem	n/a	n/a	10749	1	7	49	312	3	n/a	criticalFalse
410.024	3.5	controlItem	n/a	n/a	10750	1	7	50	313	3	n/a	controlTrue
414.023	n/a	n/a	n/a	n/a	90700	9	7	0	314	3	n/a	n/a
418.024	n/a	n/a	n/a	n/a	90000	5	0	0	315	3	n/a	n/a
