onset	duration	trial_type	response	response_time	stim_id	stim_version	stim_events	stim_slides	trial_id	run_id	stim_redcross	subsequent_response_type
2.0273	n/a	n/a	n/a	n/a	80700	8	7	0	1	1	n/a	n/a
6.0214	3.5	genericItem	n/a	n/a	10701	1	7	1	2	1	n/a	n/a
10.021	3.5	genericItem	n/a	n/a	10702	1	7	2	3	1	n/a	n/a
14.0205	3.5	controlItem	n/a	n/a	10703	1	7	3	4	1	n/a	controlFoil2
18.1108	3.5	criticalItem	n/a	n/a	20704	2	7	4	5	1	n/a	criticalTrue
22.0197	3.5	controlItem	n/a	n/a	10705	1	7	5	6	1	n/a	controlTrue
26.02	3.5	genericItem	1	0.028	10706	1	7	6	7	1	1	n/a
30.0207	3.5	controlItem	n/a	n/a	10707	1	7	7	8	1	n/a	controlTrue
34.0212	3.5	controlItem	n/a	n/a	10708	1	7	8	9	1	n/a	controlTrue
38.0556	3.5	criticalItem	n/a	n/a	20709	2	7	9	10	1	n/a	criticalTrue
42.0219	3.5	genericItem	n/a	n/a	10710	1	7	10	11	1	n/a	n/a
46.0213	3.5	controlItem	n/a	n/a	10711	1	7	11	12	1	n/a	controlTrue
50.0781	3.5	criticalItem	n/a	n/a	20712	2	7	12	13	1	n/a	criticalFalse
54.0205	3.5	genericItem	n/a	n/a	10713	1	7	13	14	1	n/a	n/a
58.02	3.5	controlItem	n/a	n/a	10714	1	7	14	15	1	n/a	controlFoil1
62.0197	3.5	genericItem	n/a	n/a	10715	1	7	15	16	1	n/a	n/a
66.0194	3.5	genericItem	1	0.129	10716	1	7	16	17	1	1	n/a
70.0211	3.5	genericItem	1	0.422	10717	1	7	17	18	1	1	n/a
74.0203	3.5	controlItem	n/a	n/a	10718	1	7	18	19	1	n/a	controlTrue
78.0671	3.5	criticalItem	n/a	n/a	20719	2	7	19	20	1	n/a	criticalTrue
82.0204	3.5	controlItem	n/a	n/a	10720	1	7	20	21	1	n/a	controlTrue
86.1088	3.5	criticalItem	n/a	n/a	20721	2	7	21	22	1	n/a	criticalTrue
90.0203	3.5	genericItem	n/a	n/a	10722	1	7	22	23	1	n/a	n/a
94.0193	3.5	genericItem	n/a	n/a	10723	1	7	23	24	1	n/a	n/a
98.0199	3.5	genericItem	n/a	n/a	10724	1	7	24	25	1	n/a	n/a
102.02	3.5	genericItem	n/a	n/a	10725	1	7	25	26	1	n/a	n/a
106.053	3.5	criticalItem	n/a	n/a	20726	2	7	26	27	1	n/a	criticalTrue
110.02	3.5	genericItem	n/a	n/a	10727	1	7	27	28	1	n/a	n/a
114.02	3.5	controlItem	n/a	n/a	10728	1	7	28	29	1	n/a	controlTrue
118.075	3.5	criticalItem	n/a	n/a	20729	2	7	29	30	1	n/a	criticalTrue
122.02	3.5	genericItem	n/a	n/a	10730	1	7	30	31	1	n/a	n/a
126.02	3.5	genericItem	n/a	n/a	10731	1	7	31	32	1	n/a	n/a
130.021	3.5	genericItem	1	0.119	10732	1	7	32	33	1	1	n/a
134.02	3.5	genericItem	n/a	n/a	10733	1	7	33	34	1	n/a	n/a
138.019	3.5	controlItem	n/a	n/a	10734	1	7	34	35	1	n/a	controlFoil1
142.094	3.5	criticalItem	n/a	n/a	20735	2	7	35	36	1	n/a	criticalFalse
146.02	3.5	genericItem	n/a	n/a	10736	1	7	36	37	1	n/a	n/a
150.02	3.5	genericItem	n/a	n/a	10737	1	7	37	38	1	n/a	n/a
154.019	3.5	genericItem	n/a	n/a	10738	1	7	38	39	1	n/a	n/a
158.055	3.5	criticalItem	n/a	n/a	20739	2	7	39	40	1	n/a	criticalFalse
162.021	3.5	controlItem	n/a	n/a	10740	1	7	40	41	1	n/a	controlTrue
166.02	3.5	genericItem	n/a	n/a	10741	1	7	41	42	1	n/a	n/a
170.02	3.5	genericItem	n/a	n/a	10742	1	7	42	43	1	n/a	n/a
174.02	3.5	genericItem	n/a	n/a	10743	1	7	43	44	1	n/a	n/a
178.076	3.5	criticalItem	n/a	n/a	20744	2	7	44	45	1	n/a	criticalTrue
182.02	3.5	genericItem	n/a	n/a	10745	1	7	45	46	1	n/a	n/a
186.021	3.5	criticalItem	n/a	n/a	20746	2	7	46	47	1	n/a	criticalFalse
190.021	3.5	genericItem	n/a	n/a	10747	1	7	47	48	1	n/a	n/a
194.02	3.5	genericItem	n/a	n/a	10748	1	7	48	49	1	n/a	n/a
198.021	3.5	criticalItem	n/a	n/a	20749	2	7	49	50	1	n/a	criticalFalse
202.02	3.5	controlItem	n/a	n/a	10750	1	7	50	51	1	n/a	controlTrue
206.02	n/a	n/a	n/a	n/a	90700	9	7	0	52	1	n/a	n/a
210.02	n/a	n/a	n/a	n/a	80400	8	4	0	53	1	n/a	n/a
214.021	3.5	genericItem	1	0.199	10401	1	4	1	54	1	1	n/a
218.02	3.5	genericItem	n/a	n/a	10402	1	4	2	55	1	n/a	n/a
222.021	3.5	genericItem	n/a	n/a	10403	1	4	3	56	1	n/a	n/a
226.02	3.5	criticalItem	n/a	n/a	20404	2	4	4	57	1	n/a	criticalTrue
230.02	3.5	genericItem	n/a	n/a	10405	1	4	5	58	1	n/a	n/a
234.023	3.5	genericItem	n/a	n/a	10406	1	4	6	59	1	n/a	n/a
238.023	3.5	criticalItem	n/a	n/a	20407	2	4	7	60	1	n/a	criticalTrue
242.02	3.5	genericItem	1	0.194	10408	1	4	8	61	1	1	n/a
246.02	3.5	controlItem	n/a	n/a	10409	1	4	9	62	1	n/a	controlTrue
250.02	3.5	genericItem	n/a	n/a	10410	1	4	10	63	1	n/a	n/a
254.02	3.5	criticalItem	n/a	n/a	20411	2	4	11	64	1	n/a	criticalTrue
258.02	3.5	controlItem	n/a	n/a	10412	1	4	12	65	1	n/a	controlTrue
262.02	3.5	genericItem	n/a	n/a	10413	1	4	13	66	1	n/a	n/a
266.019	3.5	genericItem	n/a	n/a	10414	1	4	14	67	1	n/a	n/a
270.02	3.5	criticalItem	n/a	n/a	20415	2	4	15	68	1	n/a	criticalFoil
274.02	3.5	controlItem	n/a	n/a	10416	1	4	16	69	1	n/a	controlTrue
278.02	3.5	criticalItem	n/a	n/a	20417	2	4	17	70	1	n/a	criticalTrue
282.021	3.5	genericItem	n/a	n/a	10418	1	4	18	71	1	n/a	n/a
286.019	3.5	criticalItem	n/a	n/a	20419	2	4	19	72	1	n/a	criticalTrue
290.02	3.5	genericItem	n/a	n/a	10420	1	4	20	73	1	n/a	n/a
294.021	3.5	genericItem	n/a	n/a	10421	1	4	21	74	1	n/a	n/a
298.02	3.5	controlItem	n/a	n/a	10422	1	4	22	75	1	n/a	controlFoil1
302.019	3.5	genericItem	n/a	n/a	10423	1	4	23	76	1	n/a	n/a
306.019	3.5	criticalItem	n/a	n/a	20424	2	4	24	77	1	n/a	criticalTrue
310.02	3.5	controlItem	n/a	n/a	10425	1	4	25	78	1	n/a	controlTrue
314.021	3.5	genericItem	n/a	n/a	10426	1	4	26	79	1	n/a	n/a
318.02	3.5	genericItem	n/a	n/a	10427	1	4	27	80	1	n/a	n/a
322.021	3.5	genericItem	n/a	n/a	10428	1	4	28	81	1	n/a	n/a
326.019	3.5	criticalItem	n/a	n/a	20429	2	4	29	82	1	n/a	criticalFalse
330.02	3.5	controlItem	n/a	n/a	10430	1	4	30	83	1	n/a	controlTrue
334.021	3.5	genericItem	n/a	n/a	10431	1	4	31	84	1	n/a	n/a
338.022	3.5	genericItem	n/a	n/a	10432	1	4	32	85	1	n/a	n/a
342.021	3.5	genericItem	n/a	n/a	10433	1	4	33	86	1	n/a	n/a
346.02	3.5	genericItem	n/a	n/a	10434	1	4	34	87	1	n/a	n/a
350.021	3.5	genericItem	n/a	n/a	10435	1	4	35	88	1	n/a	n/a
354.021	3.5	criticalItem	n/a	n/a	20436	2	4	36	89	1	n/a	criticalFalse
358.02	3.5	genericItem	n/a	n/a	10437	1	4	37	90	1	n/a	n/a
362.019	3.5	criticalItem	n/a	n/a	20438	2	4	38	91	1	n/a	criticalFoil
366.021	3.5	genericItem	n/a	n/a	10439	1	4	39	92	1	n/a	n/a
370.02	3.5	criticalItem	n/a	n/a	20440	2	4	40	93	1	n/a	criticalTrue
374.02	3.5	genericItem	n/a	n/a	10441	1	4	41	94	1	n/a	n/a
378.022	3.5	controlItem	n/a	n/a	10442	1	4	42	95	1	n/a	controlFoil1
382.021	3.5	controlItem	n/a	n/a	10443	1	4	43	96	1	n/a	controlFoil1
386.021	3.5	controlItem	n/a	n/a	10444	1	4	44	97	1	n/a	controlFoil2
390.024	3.5	genericItem	n/a	n/a	10445	1	4	45	98	1	n/a	n/a
394.022	3.5	controlItem	n/a	n/a	10446	1	4	46	99	1	n/a	controlTrue
398.022	3.5	genericItem	n/a	n/a	10447	1	4	47	100	1	n/a	n/a
402.023	3.5	controlItem	n/a	n/a	10448	1	4	48	101	1	n/a	controlFoil1
406.022	3.5	criticalItem	n/a	n/a	20449	2	4	49	102	1	n/a	criticalTrue
410.022	3.5	controlItem	n/a	n/a	10450	1	4	50	103	1	n/a	controlTrue
414.021	n/a	n/a	n/a	n/a	90400	9	4	0	104	1	n/a	n/a
418.022	n/a	n/a	n/a	n/a	90000	5	0	0	105	1	n/a	n/a
