onset	duration	trial_type	response	response_time	stim_id	stim_version	stim_events	stim_slides	trial_id	run_id	stim_redcross	subsequent_response_type
2.0342	n/a	n/a	n/a	n/a	80300	8	3	0	316	4	n/a	n/a
6.0198	3.5	genericItem	n/a	n/a	10301	1	3	1	317	4	n/a	n/a
10.0193	3.5	genericItem	n/a	n/a	10302	1	3	2	318	4	n/a	n/a
14.0187	3.5	controlItem	n/a	n/a	10303	1	3	3	319	4	n/a	controlTrue
18.0195	3.5	genericItem	n/a	n/a	10304	1	3	4	320	4	n/a	n/a
22.1219	3.5	criticalItem	n/a	n/a	20305	2	3	5	321	4	n/a	criticalFalse
26.0207	3.5	genericItem	1	0.173	10306	1	3	6	322	4	1	n/a
30.0202	3.5	genericItem	n/a	n/a	10307	1	3	7	323	4	n/a	n/a
34.0196	3.5	genericItem	n/a	n/a	10308	1	3	8	324	4	n/a	n/a
38.0193	3.5	controlItem	n/a	n/a	10309	1	3	9	325	4	n/a	controlFoil2
42.0198	3.5	genericItem	n/a	n/a	10310	1	3	10	326	4	n/a	n/a
46.0194	3.5	genericItem	n/a	n/a	10311	1	3	11	327	4	n/a	n/a
50.0198	3.5	genericItem	n/a	n/a	10312	1	3	12	328	4	n/a	n/a
54.0193	3.5	controlItem	n/a	n/a	10313	1	3	13	329	4	n/a	controlTrue
58.0192	3.5	genericItem	n/a	n/a	10314	1	3	14	330	4	n/a	n/a
62.0193	3.5	genericItem	n/a	n/a	10315	1	3	15	331	4	n/a	n/a
66.0631	3.5	criticalItem	n/a	n/a	20316	2	3	16	332	4	n/a	criticalFoil
70.02	3.5	controlItem	n/a	n/a	10317	1	3	17	333	4	n/a	controlTrue
74.0191	3.5	genericItem	n/a	n/a	10318	1	3	18	334	4	n/a	n/a
78.0538	3.5	criticalItem	n/a	n/a	20319	2	3	19	335	4	n/a	criticalFalse
82.0201	3.5	controlItem	n/a	n/a	10320	1	3	20	336	4	n/a	controlTrue
86.0198	3.5	genericItem	n/a	n/a	10321	1	3	21	337	4	n/a	n/a
90.0561	3.5	criticalItem	n/a	n/a	20322	2	3	22	338	4	n/a	criticalFoil
94.0213	3.5	genericItem	n/a	n/a	10323	1	3	23	339	4	n/a	n/a
98.0194	3.5	criticalItem	n/a	n/a	20324	2	3	24	340	4	n/a	criticalFalse
102.019	3.5	controlItem	n/a	n/a	10325	1	3	25	341	4	n/a	controlFoil1
106.019	3.5	genericItem	n/a	n/a	10326	1	3	26	342	4	n/a	n/a
110.02	3.5	criticalItem	n/a	n/a	20327	2	3	27	343	4	n/a	criticalFalse
114.019	3.5	genericItem	n/a	n/a	10328	1	3	28	344	4	n/a	n/a
118.019	3.5	controlItem	n/a	n/a	10329	1	3	29	345	4	n/a	controlTrue
122.02	3.5	criticalItem	n/a	n/a	20330	2	3	30	346	4	n/a	criticalFalse
126.019	3.5	controlItem	n/a	n/a	10331	1	3	31	347	4	n/a	controlFoil2
130.02	3.5	criticalItem	n/a	n/a	20332	2	3	32	348	4	n/a	criticalFalse
134.019	3.5	genericItem	n/a	n/a	10333	1	3	33	349	4	n/a	n/a
138.02	3.5	genericItem	n/a	n/a	10334	1	3	34	350	4	n/a	n/a
142.019	3.5	genericItem	n/a	n/a	10335	1	3	35	351	4	n/a	n/a
146.075	3.5	criticalItem	n/a	n/a	20336	2	3	36	352	4	n/a	criticalFalse
150.02	3.5	genericItem	n/a	n/a	10337	1	3	37	353	4	n/a	n/a
154.02	3.5	genericItem	n/a	n/a	10338	1	3	38	354	4	n/a	n/a
158.019	3.5	genericItem	n/a	n/a	10339	1	3	39	355	4	n/a	n/a
162.019	3.5	genericItem	n/a	n/a	10340	1	3	40	356	4	n/a	n/a
166.07	3.5	criticalItem	n/a	n/a	20341	2	3	41	357	4	n/a	criticalTrue
170.019	3.5	controlItem	n/a	n/a	10342	1	3	42	358	4	n/a	controlFoil1
174.02	3.5	genericItem	n/a	n/a	10343	1	3	43	359	4	n/a	n/a
178.072	3.5	criticalItem	n/a	n/a	20344	2	3	44	360	4	n/a	criticalFoil
182.019	3.5	controlItem	n/a	n/a	10345	1	3	45	361	4	n/a	controlFoil2
186.019	3.5	genericItem	1	0.164	10346	1	3	46	362	4	1	n/a
190.073	3.5	criticalItem	n/a	n/a	20347	2	3	47	363	4	n/a	criticalFoil
194.019	3.5	controlItem	n/a	n/a	10348	1	3	48	364	4	n/a	controlFoil2
198.02	3.5	genericItem	n/a	n/a	10349	1	3	49	365	4	n/a	n/a
202.02	3.5	controlItem	n/a	n/a	10350	1	3	50	366	4	n/a	controlFoil1
206.02	n/a	n/a	n/a	n/a	90300	9	3	0	367	4	n/a	n/a
210.02	n/a	n/a	n/a	n/a	80100	8	1	0	368	4	n/a	n/a
214.02	3.5	genericItem	1	0.188	10101	1	1	1	369	4	1	n/a
218.019	3.5	genericItem	n/a	n/a	10102	1	1	2	370	4	n/a	n/a
222.021	3.5	genericItem	n/a	n/a	10103	1	1	3	371	4	n/a	n/a
226.02	3.5	controlItem	n/a	n/a	10104	1	1	4	372	4	n/a	controlFoil1
230.02	3.5	genericItem	1	0.086	10105	1	1	5	373	4	1	n/a
234.019	3.5	genericItem	n/a	n/a	10106	1	1	6	374	4	n/a	n/a
238.019	3.5	controlItem	n/a	n/a	10107	1	1	7	375	4	n/a	controlTrue
242.02	3.5	genericItem	n/a	n/a	10108	1	1	8	376	4	n/a	n/a
246.019	3.5	genericItem	n/a	n/a	10109	1	1	9	377	4	n/a	n/a
250.019	3.5	criticalItem	n/a	n/a	20110	2	1	10	378	4	n/a	criticalTrue
254.019	3.5	genericItem	n/a	n/a	10111	1	1	11	379	4	n/a	n/a
258.019	3.5	criticalItem	n/a	n/a	20112	2	1	12	380	4	n/a	criticalFoil
262.019	3.5	genericItem	n/a	n/a	10113	1	1	13	381	4	n/a	n/a
266.019	3.5	criticalItem	n/a	n/a	20114	2	1	14	382	4	n/a	criticalFalse
270.019	3.5	genericItem	n/a	n/a	10115	1	1	15	383	4	n/a	n/a
274.019	3.5	controlItem	n/a	n/a	10116	1	1	16	384	4	n/a	controlTrue
278.02	3.5	criticalItem	n/a	n/a	20117	2	1	17	385	4	n/a	criticalTrue
282.019	3.5	controlItem	n/a	n/a	10118	1	1	18	386	4	n/a	controlTrue
286.02	3.5	criticalItem	n/a	n/a	20119	2	1	19	387	4	n/a	criticalFalse
290.021	3.5	genericItem	n/a	n/a	10120	1	1	20	388	4	n/a	n/a
294.02	3.5	controlItem	n/a	n/a	10121	1	1	21	389	4	n/a	controlFoil1
298.021	3.5	criticalItem	n/a	n/a	20122	2	1	22	390	4	n/a	n/a
302.02	3.5	controlItem	n/a	n/a	10123	1	1	23	391	4	n/a	controlFoil1
306.02	3.5	controlItem	n/a	n/a	10124	1	1	24	392	4	n/a	controlFoil1
310.021	3.5	controlItem	n/a	n/a	10125	1	1	25	393	4	n/a	controlTrue
314.02	3.5	criticalItem	n/a	n/a	20126	2	1	26	394	4	n/a	criticalFoil
318.02	3.5	genericItem	n/a	n/a	10127	1	1	27	395	4	n/a	n/a
322.02	3.5	criticalItem	n/a	n/a	20128	2	1	28	396	4	n/a	criticalFalse
326.019	3.5	genericItem	n/a	n/a	10129	1	1	29	397	4	n/a	n/a
330.02	3.5	genericItem	n/a	n/a	10130	1	1	30	398	4	n/a	n/a
334.02	3.5	criticalItem	n/a	n/a	20131	2	1	31	399	4	n/a	criticalFalse
338.02	3.5	controlItem	n/a	n/a	10132	1	1	32	400	4	n/a	controlTrue
342.02	3.5	genericItem	n/a	n/a	10133	1	1	33	401	4	n/a	n/a
346.02	3.5	genericItem	n/a	n/a	10134	1	1	34	402	4	n/a	n/a
350.019	3.5	genericItem	n/a	n/a	10135	1	1	35	403	4	n/a	n/a
354.019	3.5	criticalItem	n/a	n/a	20136	2	1	36	404	4	n/a	criticalFalse
358.02	3.5	genericItem	n/a	n/a	10137	1	1	37	405	4	1	n/a
362.021	3.5	genericItem	n/a	n/a	10138	1	1	38	406	4	n/a	n/a
366.02	3.5	genericItem	n/a	n/a	10139	1	1	39	407	4	n/a	n/a
370.02	3.5	controlItem	n/a	n/a	10140	1	1	40	408	4	n/a	controlTrue
374.02	3.5	criticalItem	n/a	n/a	20141	2	1	41	409	4	n/a	criticalTrue
378.02	3.5	genericItem	n/a	n/a	10142	1	1	42	410	4	n/a	n/a
382.02	3.5	genericItem	n/a	n/a	10143	1	1	43	411	4	n/a	n/a
386.021	3.5	genericItem	1	0.084	10144	1	1	44	412	4	1	n/a
390.02	3.5	genericItem	n/a	n/a	10145	1	1	45	413	4	n/a	n/a
394.019	3.5	controlItem	n/a	n/a	10146	1	1	46	414	4	n/a	controlTrue
398.019	3.5	genericItem	n/a	n/a	10147	1	1	47	415	4	n/a	n/a
402.02	3.5	genericItem	n/a	n/a	10148	1	1	48	416	4	n/a	n/a
406.02	3.5	controlItem	n/a	n/a	10149	1	1	49	417	4	n/a	controlFoil1
410.02	3.5	criticalItem	n/a	n/a	20150	2	1	50	418	4	n/a	criticalFalse
414.02	n/a	n/a	n/a	n/a	90100	9	1	0	419	4	n/a	n/a
418.02	n/a	n/a	n/a	n/a	90000	5	0	0	420	4	n/a	n/a
