onset	duration	trial_type	response	response_time	stim_id	stim_events	stim_slides	trial_id	run_id	stim_type	response_type
2.0066	n/a	n/a	n/a	n/a	80700	7	0	445	4	8	n/a
12.0063	3.5	controlItem	n/a	n/a	10708	7	8	446	4	1	n/a
15.4901	3.0	controlItem	n/a	n/a	70708	7	8	447	4	0	n/a
18.4892	3.0	controlItem	True	0.423	70708	7	8	448	4	7	controlTrue
22.0053	3.5	criticalItem	n/a	n/a	10739	7	39	449	4	1	n/a
25.4883	3.0	criticalItem	n/a	n/a	70739	7	39	450	4	0	n/a
28.488	3.0	criticalItem	False	0.366	70739	7	39	451	4	7	criticalFalse
32.0028	3.5	criticalItem	n/a	n/a	10749	7	49	452	4	1	n/a
35.4867	3.0	criticalItem	n/a	n/a	30749	7	49	453	4	0	n/a
38.4867	3.0	criticalItem	True	0.239	30749	7	49	454	4	3	criticalTrue
42.0039	3.5	criticalItem	n/a	n/a	10704	7	4	455	4	1	n/a
45.4864	3.0	criticalItem	n/a	n/a	20704	7	4	456	4	0	n/a
48.4858	3.0	criticalItem	True	0.224	20704	7	4	457	4	2	criticalTrue
52.0018	3.5	controlItem	n/a	n/a	10750	7	50	458	4	1	n/a
55.4853	3.0	controlItem	n/a	n/a	30750	7	50	459	4	0	n/a
58.485	3.0	controlItem	True	0.65	30750	7	50	460	4	3	controlTrue
62.0006	3.5	controlItem	n/a	n/a	10740	7	40	461	4	1	n/a
65.4859	3.0	controlItem	n/a	n/a	50740	7	40	462	4	0	n/a
68.4828	3.0	controlItem	True	0.309	50740	7	40	463	4	5	controlTrue
72.0004	3.5	controlItem	n/a	n/a	10718	7	18	464	4	1	n/a
75.4824	3.0	controlItem	n/a	n/a	20718	7	18	465	4	0	n/a
78.4821	3.0	controlItem	Foil1	0.626	20718	7	18	466	4	2	controlFoil1
82.0146	3.5	criticalItem	n/a	n/a	10735	7	35	467	4	1	n/a
85.4982	3.0	criticalItem	n/a	n/a	30735	7	35	468	4	0	n/a
88.4972	3.0	criticalItem	True	0.27	30735	7	35	469	4	3	criticalTrue
92.015	3.5	criticalItem	n/a	n/a	10721	7	21	470	4	1	n/a
95.4976	3.0	criticalItem	n/a	n/a	50721	7	21	471	4	0	n/a
98.4976	3.0	criticalItem	True	0.364	50721	7	21	472	4	5	criticalTrue
102.013	3.5	criticalItem	n/a	n/a	10719	7	19	473	4	1	n/a
105.496	3.0	criticalItem	n/a	n/a	60719	7	19	474	4	0	n/a
108.495	3.0	criticalItem	True	0.285	60719	7	19	475	4	6	criticalTrue
112.013	3.5	controlItem	n/a	n/a	10705	7	5	476	4	1	n/a
115.495	3.0	controlItem	n/a	n/a	60705	7	5	477	4	0	n/a
118.496	3.0	controlItem	True	0.249	60705	7	5	478	4	6	controlTrue
122.011	3.5	criticalItem	n/a	n/a	10709	7	9	479	4	1	n/a
125.494	3.0	criticalItem	n/a	n/a	40709	7	9	480	4	0	n/a
128.495	3.0	criticalItem	True	0.387	40709	7	9	481	4	4	criticalTrue
132.011	3.5	controlItem	n/a	n/a	10711	7	11	482	4	1	n/a
135.493	3.0	controlItem	n/a	n/a	50711	7	11	483	4	0	n/a
138.493	3.0	controlItem	True	0.493	50711	7	11	484	4	5	controlTrue
142.009	3.5	controlItem	n/a	n/a	10707	7	7	485	4	1	n/a
145.491	3.0	controlItem	n/a	n/a	60707	7	7	486	4	0	n/a
148.491	3.0	controlItem	True	0.266	60707	7	7	487	4	6	controlTrue
152.008	3.5	criticalItem	n/a	n/a	10712	7	12	488	4	1	n/a
155.49	3.0	criticalItem	n/a	n/a	60712	7	12	489	4	0	n/a
158.491	3.0	criticalItem	True	0.341	60712	7	12	490	4	6	criticalTrue
162.007	3.5	criticalItem	n/a	n/a	10729	7	29	491	4	1	n/a
165.491	3.0	criticalItem	n/a	n/a	30729	7	29	492	4	0	n/a
168.492	3.0	criticalItem	True	0.333	30729	7	29	493	4	3	criticalTrue
172.007	3.5	controlItem	n/a	n/a	10714	7	14	494	4	1	n/a
175.491	3.0	controlItem	ForbiddenKey	1.752	50714	7	14	495	4	0	n/a
178.491	3.0	controlItem	Foil1	0.573	50714	7	14	496	4	5	controlFoil1
182.005	3.5	controlItem	n/a	n/a	10734	7	34	497	4	1	n/a
185.487	3.0	controlItem	n/a	n/a	40734	7	34	498	4	0	n/a
188.488	3.0	controlItem	Foil1	0.26	40734	7	34	499	4	4	controlFoil1
192.005	3.5	criticalItem	n/a	n/a	10726	7	26	500	4	1	n/a
195.488	3.0	criticalItem	n/a	n/a	70726	7	26	501	4	0	n/a
198.487	3.0	criticalItem	Foil	1.801	70726	7	26	502	4	7	criticalFoil
202.003	3.5	criticalItem	n/a	n/a	10744	7	44	503	4	1	n/a
205.486	3.0	criticalItem	n/a	n/a	70744	7	44	504	4	0	n/a
208.486	3.0	criticalItem	True	0.311	70744	7	44	505	4	7	criticalTrue
212.003	3.5	criticalItem	n/a	n/a	10746	7	46	506	4	1	n/a
215.485	3.0	criticalItem	n/a	n/a	70746	7	46	507	4	0	n/a
218.485	3.0	criticalItem	False	1.375	70746	7	46	508	4	7	criticalFalse
222	3.5	controlItem	n/a	n/a	10703	7	3	509	4	1	n/a
225.485	3.0	controlItem	n/a	n/a	70703	7	3	510	4	0	n/a
228.484	3.0	controlItem	True	0.31	70703	7	3	511	4	7	controlTrue
232.001	3.5	controlItem	n/a	n/a	10728	7	28	512	4	1	n/a
235.484	3.0	controlItem	n/a	n/a	60728	7	28	513	4	0	n/a
238.483	3.0	controlItem	True	0.304	60728	7	28	514	4	6	controlTrue
242	3.5	controlItem	n/a	n/a	10720	7	20	515	4	1	n/a
245.483	3.0	controlItem	n/a	n/a	30720	7	20	516	4	0	n/a
248.483	3.0	controlItem	Foil1	0.334	30720	7	20	517	4	3	controlFoil1
251.999	n/a	n/a	n/a	n/a	90700	7	0	518	4	9	n/a
256.014	n/a	n/a	n/a	n/a	80100	1	0	519	4	8	n/a
266.013	3.5	controlItem	n/a	n/a	10125	1	25	520	4	1	n/a
269.496	3.0	controlItem	n/a	n/a	70125	1	25	521	4	0	n/a
272.496	3.0	controlItem	True	0.298	70125	1	25	522	4	7	controlTrue
276.012	3.5	criticalItem	n/a	n/a	10131	1	31	523	4	1	n/a
279.497	3.0	criticalItem	n/a	n/a	30131	1	31	524	4	0	n/a
282.496	3.0	criticalItem	False	0.289	30131	1	31	525	4	3	criticalFalse
286.012	3.5	criticalItem	n/a	n/a	10150	1	50	526	4	1	n/a
289.494	3.0	criticalItem	n/a	n/a	70150	1	50	527	4	0	n/a
292.493	3.0	criticalItem	True	0.234	70150	1	50	528	4	7	criticalTrue
296.01	3.5	controlItem	n/a	n/a	10132	1	32	529	4	1	n/a
299.493	3.0	controlItem	n/a	n/a	40132	1	32	530	4	0	n/a
302.493	3.0	controlItem	True	0.432	40132	1	32	531	4	4	controlTrue
306.009	3.5	controlItem	n/a	n/a	10123	1	23	532	4	1	n/a
309.493	3.0	controlItem	n/a	n/a	40123	1	23	533	4	0	n/a
312.493	3.0	controlItem	Foil1	0.367	40123	1	23	534	4	4	controlFoil1
316.009	3.5	controlItem	n/a	n/a	10104	1	4	535	4	1	n/a
319.492	3.0	controlItem	n/a	n/a	30104	1	4	536	4	0	n/a
322.491	3.0	controlItem	Foil2	0.695	30104	1	4	537	4	3	controlFoil2
326.008	3.5	controlItem	n/a	n/a	10146	1	46	538	4	1	n/a
329.49	3.0	controlItem	n/a	n/a	30146	1	46	539	4	0	n/a
332.491	3.0	controlItem	Foil2	0.518	30146	1	46	540	4	3	controlFoil2
336.007	3.5	criticalItem	n/a	n/a	10110	1	10	541	4	1	n/a
339.49	3.0	criticalItem	n/a	n/a	60110	1	10	542	4	0	n/a
342.489	3.0	criticalItem	False	0.659	60110	1	10	543	4	6	criticalFalse
346.005	3.5	criticalItem	n/a	n/a	10114	1	14	544	4	1	n/a
349.489	3.0	criticalItem	n/a	n/a	60114	1	14	545	4	0	n/a
352.488	3.0	criticalItem	False	0.26	60114	1	14	546	4	6	criticalFalse
356.004	3.5	criticalItem	n/a	n/a	10136	1	36	547	4	1	n/a
359.488	3.0	criticalItem	n/a	n/a	40136	1	36	548	4	0	n/a
362.487	3.0	criticalItem	True	0.7	40136	1	36	549	4	4	criticalTrue
366.003	3.5	criticalItem	n/a	n/a	10112	1	12	550	4	1	n/a
369.487	3.0	criticalItem	n/a	n/a	30112	1	12	551	4	0	n/a
372.486	3.0	criticalItem	False	0.993	30112	1	12	552	4	3	criticalFalse
376.003	3.5	controlItem	n/a	n/a	10116	1	16	553	4	1	n/a
379.486	3.0	controlItem	n/a	n/a	30116	1	16	554	4	0	n/a
382.486	3.0	controlItem	Foil2	0.333	30116	1	16	555	4	3	controlFoil2
386.002	3.5	controlItem	n/a	n/a	10118	1	18	556	4	1	n/a
389.484	3.0	controlItem	n/a	n/a	70118	1	18	557	4	0	n/a
392.484	3.0	controlItem	True	0.553	70118	1	18	558	4	7	controlTrue
396	3.5	criticalItem	n/a	n/a	10141	1	41	559	4	1	n/a
399.483	3.0	criticalItem	n/a	n/a	60141	1	41	560	4	0	n/a
402.483	3.0	criticalItem	n/a	n/a	60141	1	41	561	4	6	n/a
406.002	3.5	criticalItem	n/a	n/a	10126	1	26	562	4	1	n/a
409.483	3.0	criticalItem	n/a	n/a	70126	1	26	563	4	0	n/a
412.482	3.0	criticalItem	True	0.735	70126	1	26	564	4	7	criticalTrue
416.016	3.5	criticalItem	n/a	n/a	10119	1	19	565	4	1	n/a
419.499	3.0	criticalItem	n/a	n/a	60119	1	19	566	4	0	n/a
422.497	3.0	criticalItem	False	1.112	60119	1	19	567	4	6	criticalFalse
426.015	3.5	controlItem	n/a	n/a	10140	1	40	568	4	1	n/a
429.498	3.0	controlItem	n/a	n/a	30140	1	40	569	4	0	n/a
432.496	3.0	controlItem	True	0.267	30140	1	40	570	4	3	controlTrue
436.012	3.5	controlItem	n/a	n/a	10149	1	49	571	4	1	n/a
439.495	3.0	controlItem	n/a	n/a	50149	1	49	572	4	0	n/a
442.495	3.0	controlItem	True	0.343	50149	1	49	573	4	5	controlTrue
446.011	3.5	criticalItem	n/a	n/a	10117	1	17	574	4	1	n/a
449.494	3.0	criticalItem	n/a	n/a	70117	1	17	575	4	0	n/a
452.494	3.0	criticalItem	Foil	0.983	70117	1	17	576	4	7	criticalFoil
456.011	3.5	criticalItem	n/a	n/a	10122	1	22	577	4	1	n/a
459.494	3.0	criticalItem	n/a	n/a	20122	1	22	578	4	0	n/a
462.494	3.0	criticalItem	False	1.605	20122	1	22	579	4	2	criticalFalse
466.011	3.5	controlItem	n/a	n/a	10107	1	7	580	4	1	n/a
469.494	3.0	controlItem	n/a	n/a	30107	1	7	581	4	0	n/a
472.493	3.0	controlItem	True	0.368	30107	1	7	582	4	3	controlTrue
476.009	3.5	controlItem	n/a	n/a	10124	1	24	583	4	1	n/a
479.492	3.0	controlItem	n/a	n/a	70124	1	24	584	4	0	n/a
482.491	3.0	controlItem	True	1.121	70124	1	24	585	4	7	controlTrue
486.008	3.5	controlItem	n/a	n/a	10121	1	21	586	4	1	n/a
489.492	3.0	controlItem	n/a	n/a	20121	1	21	587	4	0	n/a
492.49	3.0	controlItem	Foil2	0.54	20121	1	21	588	4	2	controlFoil2
496.007	3.5	criticalItem	n/a	n/a	10128	1	28	589	4	1	n/a
499.49	3.0	criticalItem	n/a	n/a	70128	1	28	590	4	0	n/a
502.49	3.0	criticalItem	False	0.28	70128	1	28	591	4	7	criticalFalse
506.005	n/a	n/a	n/a	n/a	90100	1	0	592	4	9	n/a
