onset	duration	trial_type	response	response_time	stim_id	stim_version	stim_events	stim_slides	trial_id	run_id	stim_redcross	subsequent_response_type
2.0279	n/a	n/a	n/a	n/a	80100	8	1	0	1	1	n/a	n/a
6.0238	3.5	genericItem	n/a	n/a	10101	1	1	1	2	1	n/a	n/a
10.0239	3.5	genericItem	n/a	n/a	10102	1	1	2	3	1	n/a	n/a
14.0233	3.5	genericItem	n/a	n/a	10103	1	1	3	4	1	n/a	n/a
18.0235	3.5	controlItem	n/a	n/a	10104	1	1	4	5	1	n/a	controlTrue
22.0246	3.5	genericItem	n/a	n/a	10105	1	1	5	6	1	n/a	n/a
26.0232	3.5	genericItem	1	0.411	10106	1	1	6	7	1	1	n/a
30.0245	3.5	controlItem	n/a	n/a	10107	1	1	7	8	1	n/a	controlTrue
34.0224	3.5	genericItem	n/a	n/a	10108	1	1	8	9	1	n/a	n/a
38.0236	3.5	genericItem	n/a	n/a	10109	1	1	9	10	1	n/a	n/a
42.0229	3.5	criticalItem	n/a	n/a	20110	2	1	10	11	1	n/a	criticalFalse
46.0234	3.5	genericItem	1	0.796	10111	1	1	11	12	1	1	n/a
50.0245	3.5	criticalItem	n/a	n/a	20112	2	1	12	13	1	n/a	criticalTrue
54.0233	3.5	genericItem	1	0.971	10113	1	1	13	14	1	1	n/a
58.0238	3.5	criticalItem	n/a	n/a	20114	2	1	14	15	1	n/a	criticalFalse
62.0233	3.5	genericItem	n/a	n/a	10115	1	1	15	16	1	n/a	n/a
66.0239	3.5	controlItem	n/a	n/a	10116	1	1	16	17	1	n/a	controlTrue
70.0226	3.5	criticalItem	n/a	n/a	20117	2	1	17	18	1	n/a	criticalFoil
74.0234	3.5	controlItem	n/a	n/a	10118	1	1	18	19	1	n/a	controlFoil1
78.0234	3.5	criticalItem	n/a	n/a	20119	2	1	19	20	1	n/a	criticalTrue
82.023	3.5	genericItem	n/a	n/a	10120	1	1	20	21	1	n/a	n/a
86.0238	3.5	controlItem	n/a	n/a	10121	1	1	21	22	1	n/a	controlFoil2
90.0245	3.5	criticalItem	n/a	n/a	20122	2	1	22	23	1	n/a	criticalFalse
94.0236	3.5	controlItem	n/a	n/a	10123	1	1	23	24	1	n/a	controlFoil1
98.0236	3.5	controlItem	n/a	n/a	10124	1	1	24	25	1	n/a	controlFoil2
102.023	3.5	controlItem	n/a	n/a	10125	1	1	25	26	1	n/a	controlTrue
106.024	3.5	criticalItem	n/a	n/a	20126	2	1	26	27	1	n/a	criticalFalse
110.023	3.5	genericItem	n/a	n/a	10127	1	1	27	28	1	n/a	n/a
114.024	3.5	criticalItem	n/a	n/a	20128	2	1	28	29	1	n/a	criticalFalse
118.023	3.5	genericItem	n/a	n/a	10129	1	1	29	30	1	n/a	n/a
122.023	3.5	genericItem	n/a	n/a	10130	1	1	30	31	1	n/a	n/a
126.023	3.5	criticalItem	n/a	n/a	20131	2	1	31	32	1	n/a	criticalTrue
130.024	3.5	controlItem	n/a	n/a	10132	1	1	32	33	1	n/a	controlTrue
134.024	3.5	genericItem	n/a	n/a	10133	1	1	33	34	1	n/a	n/a
138.023	3.5	genericItem	n/a	n/a	10134	1	1	34	35	1	n/a	n/a
142.024	3.5	genericItem	n/a	n/a	10135	1	1	35	36	1	n/a	n/a
146.024	3.5	criticalItem	n/a	n/a	20136	2	1	36	37	1	n/a	criticalTrue
150.023	3.5	genericItem	n/a	n/a	10137	1	1	37	38	1	n/a	n/a
154.024	3.5	genericItem	n/a	n/a	10138	1	1	38	39	1	n/a	n/a
158.023	3.5	genericItem	n/a	n/a	10139	1	1	39	40	1	n/a	n/a
162.023	3.5	controlItem	n/a	n/a	10140	1	1	40	41	1	n/a	controlTrue
166.023	3.5	criticalItem	n/a	n/a	20141	2	1	41	42	1	n/a	criticalTrue
170.024	3.5	genericItem	n/a	n/a	10142	1	1	42	43	1	n/a	n/a
174.024	3.5	genericItem	n/a	n/a	10143	1	1	43	44	1	n/a	n/a
178.024	3.5	genericItem	n/a	n/a	10144	1	1	44	45	1	n/a	n/a
182.024	3.5	genericItem	n/a	n/a	10145	1	1	45	46	1	n/a	n/a
186.024	3.5	controlItem	n/a	n/a	10146	1	1	46	47	1	n/a	controlTrue
190.023	3.5	genericItem	1	0.712	10147	1	1	47	48	1	1	n/a
194.024	3.5	genericItem	n/a	n/a	10148	1	1	48	49	1	n/a	n/a
198.024	3.5	controlItem	n/a	n/a	10149	1	1	49	50	1	n/a	controlTrue
202.023	3.5	criticalItem	n/a	n/a	20150	2	1	50	51	1	n/a	criticalFalse
206.024	n/a	n/a	n/a	n/a	90100	9	1	0	52	1	n/a	n/a
210.023	n/a	n/a	n/a	n/a	80500	8	5	0	53	1	n/a	n/a
214.024	3.5	genericItem	n/a	n/a	10501	1	5	1	54	1	n/a	n/a
218.025	3.5	genericItem	n/a	n/a	10502	1	5	2	55	1	n/a	n/a
222.024	3.5	criticalItem	n/a	n/a	10503	1	5	3	56	1	n/a	criticalTrue
226.024	3.5	genericItem	n/a	n/a	10504	1	5	4	57	1	n/a	n/a
230.023	3.5	criticalItem	n/a	n/a	10505	1	5	5	58	1	n/a	criticalFalse
234.024	3.5	genericItem	n/a	n/a	10506	1	5	6	59	1	n/a	n/a
238.023	3.5	genericItem	n/a	n/a	10507	1	5	7	60	1	n/a	n/a
242.023	3.5	genericItem	n/a	n/a	10508	1	5	8	61	1	n/a	n/a
246.024	3.5	genericItem	n/a	n/a	10509	1	5	9	62	1	n/a	n/a
250.024	3.5	genericItem	n/a	n/a	10510	1	5	10	63	1	n/a	n/a
254.024	3.5	genericItem	n/a	n/a	10511	1	5	11	64	1	n/a	n/a
258.024	3.5	genericItem	1	0.639	10512	1	5	12	65	1	1	n/a
262.023	3.5	genericItem	n/a	n/a	10513	1	5	13	66	1	n/a	n/a
266.024	3.5	controlItem	n/a	n/a	10514	1	5	14	67	1	n/a	controlTrue
270.023	3.5	controlItem	n/a	n/a	10515	1	5	15	68	1	n/a	controlFoil1
274.024	3.5	criticalItem	n/a	n/a	10516	1	5	16	69	1	n/a	criticalFalse
278.023	3.5	controlItem	n/a	n/a	10517	1	5	17	70	1	n/a	controlTrue
282.024	3.5	controlItem	n/a	n/a	10518	1	5	18	71	1	n/a	controlFoil1
286.023	3.5	criticalItem	n/a	n/a	10519	1	5	19	72	1	n/a	criticalTrue
290.023	3.5	genericItem	n/a	n/a	10520	1	5	20	73	1	n/a	n/a
294.023	3.5	criticalItem	n/a	n/a	10521	1	5	21	74	1	n/a	criticalFalse
298.024	3.5	controlItem	n/a	n/a	10522	1	5	22	75	1	n/a	controlFoil1
302.023	3.5	criticalItem	n/a	n/a	10523	1	5	23	76	1	n/a	criticalFalse
306.025	3.5	controlItem	n/a	n/a	10524	1	5	24	77	1	n/a	controlTrue
310.024	3.5	controlItem	n/a	n/a	10525	1	5	25	78	1	n/a	controlTrue
314.024	3.5	criticalItem	n/a	n/a	10526	1	5	26	79	1	n/a	criticalFoil
318.035	3.5	controlItem	n/a	n/a	10527	1	5	27	80	1	n/a	controlFoil2
322.024	3.5	genericItem	n/a	n/a	10528	1	5	28	81	1	n/a	n/a
326.024	3.5	genericItem	1	0.697	10529	1	5	29	82	1	1	n/a
330.024	3.5	genericItem	n/a	n/a	10530	1	5	30	83	1	n/a	n/a
334.024	3.5	criticalItem	n/a	n/a	10531	1	5	31	84	1	n/a	criticalFalse
338.024	3.5	controlItem	n/a	n/a	10532	1	5	32	85	1	n/a	controlTrue
342.023	3.5	genericItem	n/a	n/a	10533	1	5	33	86	1	n/a	n/a
346.023	3.5	genericItem	n/a	n/a	10534	1	5	34	87	1	n/a	n/a
350.023	3.5	genericItem	n/a	n/a	10535	1	5	35	88	1	n/a	n/a
354.023	3.5	genericItem	n/a	n/a	10536	1	5	36	89	1	n/a	n/a
358.023	3.5	genericItem	n/a	n/a	10537	1	5	37	90	1	n/a	n/a
362.023	3.5	genericItem	1	0.963	10538	1	5	38	91	1	1	n/a
366.024	3.5	criticalItem	n/a	n/a	10539	1	5	39	92	1	n/a	criticalTrue
370.024	3.5	genericItem	n/a	n/a	10540	1	5	40	93	1	n/a	n/a
374.023	3.5	criticalItem	n/a	n/a	10541	1	5	41	94	1	n/a	criticalFalse
378.024	3.5	controlItem	n/a	n/a	10542	1	5	42	95	1	n/a	controlFoil2
382.024	3.5	genericItem	n/a	n/a	10543	1	5	43	96	1	n/a	n/a
386.023	3.5	genericItem	n/a	n/a	10544	1	5	44	97	1	n/a	n/a
390.023	3.5	genericItem	n/a	n/a	10545	1	5	45	98	1	n/a	n/a
394.024	3.5	controlItem	n/a	n/a	10546	1	5	46	99	1	n/a	controlFoil2
398.024	3.5	criticalItem	n/a	n/a	10547	1	5	47	100	1	n/a	criticalFalse
402.023	3.5	genericItem	n/a	n/a	10548	1	5	48	101	1	n/a	n/a
406.024	3.5	controlItem	n/a	n/a	10549	1	5	49	102	1	n/a	controlFoil1
410.023	3.5	criticalItem	n/a	n/a	10550	1	5	50	103	1	n/a	criticalTrue
414.023	n/a	n/a	n/a	n/a	90500	9	5	0	104	1	n/a	n/a
418.024	n/a	n/a	n/a	n/a	90000	5	0	0	105	1	n/a	n/a
