onset	duration	trial_type	response	response_time	stim_id	stim_version	stim_events	stim_slides	trial_id	run_id	stim_redcross	subsequent_response_type
2.0296	n/a	n/a	n/a	n/a	80500	8	5	0	106	2	n/a	n/a
6.0225	3.5	genericItem	n/a	n/a	10501	1	5	1	107	2	n/a	n/a
10.0238	3.5	genericItem	n/a	n/a	10502	1	5	2	108	2	n/a	n/a
14.023	3.5	criticalItem	n/a	n/a	10503	1	5	3	109	2	n/a	criticalTrue
18.0238	3.5	genericItem	n/a	n/a	10504	1	5	4	110	2	n/a	n/a
22.0231	3.5	criticalItem	n/a	n/a	10505	1	5	5	111	2	n/a	criticalFalse
26.0232	3.5	genericItem	n/a	n/a	10506	1	5	6	112	2	n/a	n/a
30.0226	3.5	genericItem	n/a	n/a	10507	1	5	7	113	2	n/a	n/a
34.0231	3.5	genericItem	n/a	n/a	10508	1	5	8	114	2	n/a	n/a
38.0232	3.5	genericItem	n/a	n/a	10509	1	5	9	115	2	n/a	n/a
42.0234	3.5	genericItem	n/a	n/a	10510	1	5	10	116	2	n/a	n/a
46.0241	3.5	genericItem	n/a	n/a	10511	1	5	11	117	2	n/a	n/a
50.0244	3.5	genericItem	n/a	n/a	10512	1	5	12	118	2	n/a	n/a
54.023	3.5	genericItem	n/a	n/a	10513	1	5	13	119	2	n/a	n/a
58.0234	3.5	controlItem	n/a	n/a	10514	1	5	14	120	2	n/a	controlFoil2
62.0234	3.5	controlItem	n/a	n/a	10515	1	5	15	121	2	n/a	controlFoil2
66.0245	3.5	criticalItem	n/a	n/a	10516	1	5	16	122	2	n/a	criticalTrue
70.0224	3.5	controlItem	n/a	n/a	10517	1	5	17	123	2	n/a	controlFoil2
74.0238	3.5	controlItem	n/a	n/a	10518	1	5	18	124	2	n/a	controlTrue
78.0234	3.5	criticalItem	n/a	n/a	10519	1	5	19	125	2	n/a	criticalFalse
82.024	3.5	genericItem	n/a	n/a	10520	1	5	20	126	2	n/a	n/a
86.0236	3.5	criticalItem	n/a	n/a	10521	1	5	21	127	2	n/a	criticalFalse
90.0228	3.5	controlItem	n/a	n/a	10522	1	5	22	128	2	n/a	controlTrue
94.0232	3.5	criticalItem	n/a	n/a	10523	1	5	23	129	2	n/a	criticalFalse
98.0243	3.5	controlItem	n/a	n/a	10524	1	5	24	130	2	n/a	controlTrue
102.023	3.5	controlItem	n/a	n/a	10525	1	5	25	131	2	n/a	controlTrue
106.024	3.5	criticalItem	n/a	n/a	10526	1	5	26	132	2	n/a	criticalTrue
110.024	3.5	controlItem	n/a	n/a	10527	1	5	27	133	2	n/a	controlTrue
114.024	3.5	genericItem	n/a	n/a	10528	1	5	28	134	2	n/a	n/a
118.023	3.5	genericItem	n/a	n/a	10529	1	5	29	135	2	n/a	n/a
122.024	3.5	genericItem	n/a	n/a	10530	1	5	30	136	2	n/a	n/a
126.023	3.5	criticalItem	n/a	n/a	10531	1	5	31	137	2	n/a	criticalFalse
130.025	3.5	controlItem	n/a	n/a	10532	1	5	32	138	2	n/a	controlTrue
134.023	3.5	genericItem	n/a	n/a	10533	1	5	33	139	2	n/a	n/a
138.024	3.5	genericItem	n/a	n/a	10534	1	5	34	140	2	n/a	n/a
142.023	3.5	genericItem	1	0.456	10535	1	5	35	141	2	1	n/a
146.023	3.5	genericItem	n/a	n/a	10536	1	5	36	142	2	n/a	n/a
150.024	3.5	genericItem	n/a	n/a	10537	1	5	37	143	2	n/a	n/a
154.023	3.5	genericItem	n/a	n/a	10538	1	5	38	144	2	n/a	n/a
158.024	3.5	criticalItem	n/a	n/a	10539	1	5	39	145	2	n/a	criticalFalse
162.023	3.5	genericItem	n/a	n/a	10540	1	5	40	146	2	n/a	n/a
166.023	3.5	criticalItem	n/a	n/a	10541	1	5	41	147	2	n/a	criticalTrue
170.024	3.5	controlItem	n/a	n/a	10542	1	5	42	148	2	n/a	controlFoil1
174.023	3.5	genericItem	n/a	n/a	10543	1	5	43	149	2	n/a	n/a
178.023	3.5	genericItem	1	0.484	10544	1	5	44	150	2	1	n/a
182.024	3.5	genericItem	n/a	n/a	10545	1	5	45	151	2	n/a	n/a
186.024	3.5	controlItem	n/a	n/a	10546	1	5	46	152	2	n/a	controlTrue
190.024	3.5	criticalItem	n/a	n/a	10547	1	5	47	153	2	n/a	criticalTrue
194.023	3.5	genericItem	n/a	n/a	10548	1	5	48	154	2	n/a	n/a
198.024	3.5	controlItem	n/a	n/a	10549	1	5	49	155	2	n/a	controlFoil2
202.025	3.5	criticalItem	n/a	n/a	10550	1	5	50	156	2	n/a	criticalTrue
206.023	n/a	n/a	n/a	n/a	90500	9	5	0	157	2	n/a	n/a
210.023	n/a	n/a	n/a	n/a	80900	8	9	0	158	2	n/a	n/a
214.023	3.5	genericItem	n/a	n/a	10901	1	9	1	159	2	n/a	n/a
218.024	3.5	genericItem	n/a	n/a	10902	1	9	2	160	2	n/a	n/a
222.023	3.5	controlItem	n/a	n/a	10903	1	9	3	161	2	n/a	controlTrue
226.024	3.5	criticalItem	n/a	n/a	20904	2	9	4	162	2	n/a	criticalTrue
230.024	3.5	controlItem	n/a	n/a	10905	1	9	5	163	2	n/a	controlFoil1
234.023	3.5	genericItem	n/a	n/a	10906	1	9	6	164	2	n/a	n/a
238.024	3.5	genericItem	n/a	n/a	10907	1	9	7	165	2	n/a	n/a
242.023	3.5	criticalItem	n/a	n/a	20908	2	9	8	166	2	n/a	criticalTrue
246.023	3.5	controlItem	n/a	n/a	10909	1	9	9	167	2	n/a	controlFoil1
250.024	3.5	criticalItem	n/a	n/a	20910	2	9	10	168	2	n/a	criticalFalse
254.024	3.5	controlItem	n/a	n/a	10911	1	9	11	169	2	n/a	controlTrue
258.023	3.5	genericItem	1	0.428	10912	1	9	12	170	2	1	n/a
262.023	3.5	criticalItem	n/a	n/a	20913	2	9	13	171	2	n/a	criticalTrue
266.025	3.5	genericItem	n/a	n/a	10914	1	9	14	172	2	n/a	n/a
270.024	3.5	controlItem	n/a	n/a	10915	1	9	15	173	2	n/a	controlFoil1
274.023	3.5	genericItem	n/a	n/a	10916	1	9	16	174	2	n/a	n/a
278.023	3.5	controlItem	n/a	n/a	10917	1	9	17	175	2	n/a	controlFoil1
282.024	3.5	genericItem	n/a	n/a	10918	1	9	18	176	2	n/a	n/a
286.023	3.5	criticalItem	n/a	n/a	20919	2	9	19	177	2	n/a	criticalFoil
290.023	3.5	genericItem	1	0.569	10920	1	9	20	178	2	1	n/a
294.023	3.5	genericItem	n/a	n/a	10921	1	9	21	179	2	n/a	n/a
298.024	3.5	criticalItem	n/a	n/a	20922	2	9	22	180	2	n/a	criticalFalse
302.023	3.5	controlItem	n/a	n/a	10923	1	9	23	181	2	n/a	controlTrue
306.023	3.5	criticalItem	n/a	n/a	20924	2	9	24	182	2	n/a	criticalFalse
310.024	3.5	genericItem	n/a	n/a	10925	1	9	25	183	2	n/a	n/a
314.024	3.5	criticalItem	n/a	n/a	20926	2	9	26	184	2	n/a	criticalFalse
318.024	3.5	genericItem	n/a	n/a	10927	1	9	27	185	2	n/a	n/a
322.023	3.5	criticalItem	n/a	n/a	20928	2	9	28	186	2	n/a	criticalFalse
326.023	3.5	genericItem	n/a	n/a	10929	1	9	29	187	2	n/a	n/a
330.023	3.5	genericItem	n/a	n/a	10930	1	9	30	188	2	n/a	n/a
334.023	3.5	controlItem	n/a	n/a	10931	1	9	31	189	2	n/a	controlTrue
338.024	3.5	genericItem	n/a	n/a	10932	1	9	32	190	2	n/a	n/a
342.022	3.5	genericItem	n/a	n/a	10933	1	9	33	191	2	n/a	n/a
346.023	3.5	genericItem	n/a	n/a	10934	1	9	34	192	2	n/a	n/a
350.023	3.5	criticalItem	n/a	n/a	20935	2	9	35	193	2	n/a	criticalFalse
354.023	3.5	genericItem	1	0.588	10936	1	9	36	194	2	1	n/a
358.023	3.5	genericItem	n/a	n/a	10937	1	9	37	195	2	n/a	n/a
362.023	3.5	genericItem	n/a	n/a	10938	1	9	38	196	2	n/a	n/a
366.024	3.5	genericItem	n/a	n/a	10939	1	9	39	197	2	n/a	n/a
370.023	3.5	genericItem	n/a	n/a	10940	1	9	40	198	2	n/a	n/a
374.023	3.5	criticalItem	n/a	n/a	20941	2	9	41	199	2	n/a	criticalTrue
378.024	3.5	genericItem	n/a	n/a	10942	1	9	42	200	2	n/a	n/a
382.024	3.5	controlItem	n/a	n/a	10943	1	9	43	201	2	n/a	controlTrue
386.024	3.5	genericItem	n/a	n/a	10944	1	9	44	202	2	n/a	n/a
390.027	3.5	controlItem	n/a	n/a	10945	1	9	45	203	2	n/a	controlTrue
394.024	3.5	genericItem	n/a	n/a	10946	1	9	46	204	2	n/a	n/a
398.024	3.5	controlItem	n/a	n/a	10947	1	9	47	205	2	n/a	controlTrue
402.024	3.5	genericItem	n/a	n/a	10948	1	9	48	206	2	n/a	n/a
406.023	3.5	criticalItem	n/a	n/a	20949	2	9	49	207	2	n/a	criticalTrue
410.023	3.5	controlItem	n/a	n/a	10950	1	9	50	208	2	n/a	controlTrue
414.024	n/a	n/a	n/a	n/a	90900	9	9	0	209	2	n/a	n/a
418.023	n/a	n/a	n/a	n/a	90000	5	0	0	210	2	n/a	n/a
