onset	duration	trial_type	response	response_time	stim_id	stim_version	stim_events	stim_slides	trial_id	run_id	stim_redcross	subsequent_response_type
2.0379	n/a	n/a	n/a	n/a	80100	8	1	0	106	2	n/a	n/a
6.0285	3.5	genericItem	1	1.23	10101	1	1	1	107	2	1	n/a
10.029	3.5	genericItem	n/a	n/a	10102	1	1	2	108	2	n/a	n/a
14.029	3.5	genericItem	n/a	n/a	10103	1	1	3	109	2	n/a	n/a
18.0271	3.5	controlItem	n/a	n/a	10104	1	1	4	110	2	n/a	controlTrue
22.0266	3.5	genericItem	n/a	n/a	10105	1	1	5	111	2	n/a	n/a
26.028	3.5	genericItem	n/a	n/a	10106	1	1	6	112	2	n/a	n/a
30.0279	3.5	controlItem	n/a	n/a	10107	1	1	7	113	2	n/a	controlTrue
34.0276	3.5	genericItem	n/a	n/a	10108	1	1	8	114	2	n/a	n/a
38.0275	3.5	genericItem	n/a	n/a	10109	1	1	9	115	2	n/a	n/a
42.0834	3.5	criticalItem	n/a	n/a	20110	2	1	10	116	2	n/a	criticalTrue
46.0288	3.5	genericItem	n/a	n/a	10111	1	1	11	117	2	n/a	n/a
50.0611	3.5	criticalItem	n/a	n/a	20112	2	1	12	118	2	n/a	criticalFalse
54.0269	3.5	genericItem	n/a	n/a	10113	1	1	13	119	2	n/a	n/a
58.0792	3.5	criticalItem	n/a	n/a	20114	2	1	14	120	2	n/a	criticalFalse
62.027	3.5	genericItem	n/a	n/a	10115	1	1	15	121	2	n/a	n/a
66.0282	3.5	controlItem	n/a	n/a	10116	1	1	16	122	2	n/a	controlTrue
70.095	3.5	criticalItem	n/a	n/a	20117	2	1	17	123	2	n/a	criticalFalse
74.0281	3.5	controlItem	n/a	n/a	10118	1	1	18	124	2	n/a	controlFoil1
78.0853	3.5	criticalItem	n/a	n/a	20119	2	1	19	125	2	n/a	criticalTrue
82.0277	3.5	genericItem	n/a	n/a	10120	1	1	20	126	2	n/a	n/a
86.0278	3.5	controlItem	n/a	n/a	10121	1	1	21	127	2	n/a	controlFoil1
90.0292	3.5	criticalItem	n/a	n/a	20122	2	1	22	128	2	n/a	criticalTrue
94.0278	3.5	controlItem	n/a	n/a	10123	1	1	23	129	2	n/a	controlFoil1
98.0281	3.5	controlItem	n/a	n/a	10124	1	1	24	130	2	n/a	controlTrue
102.027	3.5	controlItem	n/a	n/a	10125	1	1	25	131	2	n/a	controlTrue
106.08	3.5	criticalItem	n/a	n/a	20126	2	1	26	132	2	n/a	criticalFalse
110.028	3.5	genericItem	n/a	n/a	10127	1	1	27	133	2	n/a	n/a
114.052	3.5	criticalItem	n/a	n/a	20128	2	1	28	134	2	n/a	criticalFalse
118.025	3.5	genericItem	n/a	n/a	10129	1	1	29	135	2	n/a	n/a
122.029	3.5	genericItem	n/a	n/a	10130	1	1	30	136	2	n/a	n/a
126.062	3.5	criticalItem	n/a	n/a	20131	2	1	31	137	2	n/a	criticalFalse
130.026	3.5	controlItem	n/a	n/a	10132	1	1	32	138	2	n/a	controlFoil2
134.029	3.5	genericItem	n/a	n/a	10133	1	1	33	139	2	n/a	n/a
138.028	3.5	genericItem	n/a	n/a	10134	1	1	34	140	2	n/a	n/a
142.029	3.5	genericItem	n/a	n/a	10135	1	1	35	141	2	n/a	n/a
146.063	3.5	criticalItem	n/a	n/a	20136	2	1	36	142	2	n/a	criticalFalse
150.028	3.5	genericItem	n/a	n/a	10137	1	1	37	143	2	n/a	n/a
154.029	3.5	genericItem	1	0.456	10138	1	1	38	144	2	1	n/a
158.028	3.5	genericItem	n/a	n/a	10139	1	1	39	145	2	n/a	n/a
162.028	3.5	controlItem	n/a	n/a	10140	1	1	40	146	2	n/a	controlTrue
166.135	3.5	criticalItem	n/a	n/a	20141	2	1	41	147	2	n/a	criticalFalse
170.026	3.5	genericItem	n/a	n/a	10142	1	1	42	148	2	n/a	n/a
174.026	3.5	genericItem	n/a	n/a	10143	1	1	43	149	2	n/a	n/a
178.026	3.5	genericItem	n/a	n/a	10144	1	1	44	150	2	n/a	n/a
182.026	3.5	genericItem	n/a	n/a	10145	1	1	45	151	2	n/a	n/a
186.026	3.5	controlItem	n/a	n/a	10146	1	1	46	152	2	n/a	controlTrue
190.027	3.5	genericItem	n/a	n/a	10147	1	1	47	153	2	n/a	n/a
194.026	3.5	genericItem	n/a	n/a	10148	1	1	48	154	2	n/a	n/a
198.027	3.5	controlItem	n/a	n/a	10149	1	1	49	155	2	n/a	controlFoil1
202.1	3.5	criticalItem	n/a	n/a	20150	2	1	50	156	2	n/a	criticalFalse
206.021	n/a	n/a	n/a	n/a	90100	9	1	0	157	2	n/a	n/a
210.021	n/a	n/a	n/a	n/a	80500	8	5	0	158	2	n/a	n/a
214.024	3.5	genericItem	n/a	n/a	10501	1	5	1	159	2	n/a	n/a
218.024	3.5	genericItem	n/a	n/a	10502	1	5	2	160	2	n/a	n/a
222.023	3.5	criticalItem	n/a	n/a	20503	2	5	3	161	2	n/a	criticalFoil
226.023	3.5	genericItem	n/a	n/a	10504	1	5	4	162	2	1	n/a
230.022	3.5	criticalItem	n/a	n/a	20505	2	5	5	163	2	n/a	criticalFalse
234.024	3.5	genericItem	n/a	n/a	10506	1	5	6	164	2	n/a	n/a
238.024	3.5	genericItem	n/a	n/a	10507	1	5	7	165	2	n/a	n/a
242.024	3.5	genericItem	n/a	n/a	10508	1	5	8	166	2	n/a	n/a
246.024	3.5	genericItem	n/a	n/a	10509	1	5	9	167	2	1	n/a
250.024	3.5	genericItem	n/a	n/a	10510	1	5	10	168	2	n/a	n/a
254.023	3.5	genericItem	n/a	n/a	10511	1	5	11	169	2	n/a	n/a
258.023	3.5	genericItem	n/a	n/a	10512	1	5	12	170	2	n/a	n/a
262.022	3.5	genericItem	n/a	n/a	10513	1	5	13	171	2	n/a	n/a
266.023	3.5	controlItem	n/a	n/a	10514	1	5	14	172	2	n/a	controlTrue
270.025	3.5	controlItem	n/a	n/a	10515	1	5	15	173	2	n/a	controlFoil1
274.023	3.5	criticalItem	n/a	n/a	20516	2	5	16	174	2	n/a	criticalFalse
278.023	3.5	controlItem	n/a	n/a	10517	1	5	17	175	2	n/a	controlTrue
282.024	3.5	controlItem	n/a	n/a	10518	1	5	18	176	2	n/a	controlTrue
286.025	3.5	criticalItem	n/a	n/a	20519	2	5	19	177	2	n/a	criticalFalse
290.025	3.5	genericItem	n/a	n/a	10520	1	5	20	178	2	n/a	n/a
294.024	3.5	criticalItem	n/a	n/a	20521	2	5	21	179	2	n/a	criticalFalse
298.027	3.5	controlItem	n/a	n/a	10522	1	5	22	180	2	n/a	controlFoil1
302.023	3.5	criticalItem	n/a	n/a	20523	2	5	23	181	2	n/a	criticalTrue
306.025	3.5	controlItem	n/a	n/a	10524	1	5	24	182	2	n/a	controlTrue
310.024	3.5	controlItem	n/a	n/a	10525	1	5	25	183	2	n/a	controlFoil2
314.023	3.5	criticalItem	n/a	n/a	20526	2	5	26	184	2	n/a	criticalTrue
318.024	3.5	controlItem	n/a	n/a	10527	1	5	27	185	2	n/a	controlTrue
322.023	3.5	genericItem	n/a	n/a	10528	1	5	28	186	2	n/a	n/a
326.024	3.5	genericItem	n/a	n/a	10529	1	5	29	187	2	n/a	n/a
330.024	3.5	genericItem	n/a	n/a	10530	1	5	30	188	2	n/a	n/a
334.024	3.5	criticalItem	n/a	n/a	20531	2	5	31	189	2	n/a	criticalTrue
338.023	3.5	controlItem	n/a	n/a	10532	1	5	32	190	2	n/a	controlTrue
342.025	3.5	genericItem	n/a	n/a	10533	1	5	33	191	2	n/a	n/a
346.023	3.5	genericItem	n/a	n/a	10534	1	5	34	192	2	n/a	n/a
350.024	3.5	genericItem	n/a	n/a	10535	1	5	35	193	2	n/a	n/a
354.024	3.5	genericItem	n/a	n/a	10536	1	5	36	194	2	n/a	n/a
358.024	3.5	genericItem	n/a	n/a	10537	1	5	37	195	2	n/a	n/a
362.024	3.5	genericItem	1	0.892	10538	1	5	38	196	2	1	n/a
366.024	3.5	criticalItem	n/a	n/a	20539	2	5	39	197	2	n/a	criticalFalse
370.023	3.5	genericItem	n/a	n/a	10540	1	5	40	198	2	n/a	n/a
374.025	3.5	criticalItem	n/a	n/a	20541	2	5	41	199	2	n/a	criticalTrue
378.024	3.5	controlItem	n/a	n/a	10542	1	5	42	200	2	n/a	controlTrue
382.023	3.5	genericItem	n/a	n/a	10543	1	5	43	201	2	n/a	n/a
386.023	3.5	genericItem	n/a	n/a	10544	1	5	44	202	2	n/a	n/a
390.024	3.5	genericItem	n/a	n/a	10545	1	5	45	203	2	n/a	n/a
394.024	3.5	controlItem	n/a	n/a	10546	1	5	46	204	2	n/a	controlTrue
398.022	3.5	criticalItem	n/a	n/a	20547	2	5	47	205	2	n/a	criticalFoil
402.023	3.5	genericItem	n/a	n/a	10548	1	5	48	206	2	n/a	n/a
406.024	3.5	controlItem	n/a	n/a	10549	1	5	49	207	2	n/a	controlTrue
410.022	3.5	criticalItem	n/a	n/a	20550	2	5	50	208	2	n/a	criticalTrue
414.019	n/a	n/a	n/a	n/a	90500	9	5	0	209	2	n/a	n/a
418.019	n/a	n/a	n/a	n/a	90000	9	0	0	210	2	n/a	n/a
