onset	duration	trial_type	response	response_time	stim_id	stim_version	stim_events	stim_slides	trial_id	run_id	stim_redcross	subsequent_response_type
2.0286	n/a	n/a	n/a	n/a	80100	8	1	0	211	3	n/a	n/a
6.0232	3.5	genericItem	n/a	n/a	10101	1	1	1	212	3	n/a	n/a
10.0233	3.5	genericItem	n/a	n/a	10102	1	1	2	213	3	n/a	n/a
14.0246	3.5	genericItem	n/a	n/a	10103	1	1	3	214	3	n/a	n/a
18.0232	3.5	controlItem	n/a	n/a	10104	1	1	4	215	3	n/a	controlFoil2
22.0244	3.5	genericItem	n/a	n/a	10105	1	1	5	216	3	n/a	n/a
26.0227	3.5	genericItem	1	0.364	10106	1	1	6	217	3	1	n/a
30.024	3.5	controlItem	n/a	n/a	10107	1	1	7	218	3	n/a	controlTrue
34.024	3.5	genericItem	n/a	n/a	10108	1	1	8	219	3	n/a	n/a
38.024	3.5	genericItem	n/a	n/a	10109	1	1	9	220	3	n/a	n/a
42.08	3.5	criticalItem	n/a	n/a	20110	2	1	10	221	3	n/a	criticalFalse
46.0245	3.5	genericItem	n/a	n/a	10111	1	1	11	222	3	n/a	n/a
50.0815	3.5	criticalItem	n/a	n/a	20112	2	1	12	223	3	n/a	criticalTrue
54.0235	3.5	genericItem	n/a	n/a	10113	1	1	13	224	3	n/a	n/a
58.0237	3.5	criticalItem	n/a	n/a	20114	2	1	14	225	3	n/a	criticalFalse
62.0231	3.5	genericItem	n/a	n/a	10115	1	1	15	226	3	n/a	n/a
66.0229	3.5	controlItem	n/a	n/a	10116	1	1	16	227	3	n/a	controlTrue
70.0702	3.5	criticalItem	n/a	n/a	20117	2	1	17	228	3	n/a	criticalFalse
74.0237	3.5	controlItem	n/a	n/a	10118	1	1	18	229	3	n/a	controlFoil1
78.0235	3.5	criticalItem	n/a	n/a	20119	2	1	19	230	3	n/a	criticalFalse
82.0231	3.5	genericItem	n/a	n/a	10120	1	1	20	231	3	n/a	n/a
86.0243	3.5	controlItem	n/a	n/a	10121	1	1	21	232	3	n/a	controlFoil1
90.0246	3.5	criticalItem	n/a	n/a	20122	2	1	22	233	3	n/a	criticalFalse
94.0236	3.5	controlItem	n/a	n/a	10123	1	1	23	234	3	n/a	controlFoil1
98.0233	3.5	controlItem	n/a	n/a	10124	1	1	24	235	3	n/a	controlFoil1
102.024	3.5	controlItem	n/a	n/a	10125	1	1	25	236	3	n/a	controlFoil1
106.066	3.5	criticalItem	n/a	n/a	20126	2	1	26	237	3	n/a	criticalFoil
110.023	3.5	genericItem	n/a	n/a	10127	1	1	27	238	3	n/a	n/a
114.024	3.5	criticalItem	n/a	n/a	20128	2	1	28	239	3	n/a	criticalTrue
118.024	3.5	genericItem	1	0.478	10129	1	1	29	240	3	1	n/a
122.023	3.5	genericItem	n/a	n/a	10130	1	1	30	241	3	n/a	n/a
126.024	3.5	criticalItem	n/a	n/a	20131	2	1	31	242	3	n/a	criticalFalse
130.024	3.5	controlItem	n/a	n/a	10132	1	1	32	243	3	n/a	controlFoil1
134.023	3.5	genericItem	n/a	n/a	10133	1	1	33	244	3	n/a	n/a
138.023	3.5	genericItem	n/a	n/a	10134	1	1	34	245	3	n/a	n/a
142.024	3.5	genericItem	n/a	n/a	10135	1	1	35	246	3	n/a	n/a
146.037	3.5	criticalItem	ForbiddenKey	0.276	20136	2	1	36	247	3	n/a	criticalFalse
150.023	3.5	genericItem	n/a	n/a	10137	1	1	37	248	3	n/a	n/a
154.024	3.5	genericItem	n/a	n/a	10138	1	1	38	249	3	n/a	n/a
158.023	3.5	genericItem	n/a	n/a	10139	1	1	39	250	3	n/a	n/a
162.023	3.5	controlItem	n/a	n/a	10140	1	1	40	251	3	n/a	controlFoil2
166.34	3.5	criticalItem	n/a	n/a	20141	2	1	41	252	3	n/a	criticalTrue
170.023	3.5	genericItem	n/a	n/a	10142	1	1	42	253	3	n/a	n/a
174.023	3.5	genericItem	n/a	n/a	10143	1	1	43	254	3	n/a	n/a
178.024	3.5	genericItem	n/a	n/a	10144	1	1	44	255	3	n/a	n/a
182.024	3.5	genericItem	n/a	n/a	10145	1	1	45	256	3	n/a	n/a
186.023	3.5	controlItem	n/a	n/a	10146	1	1	46	257	3	n/a	controlFoil2
190.023	3.5	genericItem	n/a	n/a	10147	1	1	47	258	3	n/a	n/a
194.024	3.5	genericItem	n/a	n/a	10148	1	1	48	259	3	n/a	n/a
198.024	3.5	controlItem	n/a	n/a	10149	1	1	49	260	3	n/a	controlTrue
202.061	3.5	criticalItem	n/a	n/a	20150	2	1	50	261	3	n/a	criticalTrue
206.024	n/a	n/a	n/a	n/a	90100	9	1	0	262	3	n/a	n/a
210.024	n/a	n/a	n/a	n/a	80500	8	5	0	263	3	n/a	n/a
214.024	3.5	genericItem	n/a	n/a	10501	1	5	1	264	3	n/a	n/a
218.023	3.5	genericItem	n/a	n/a	10502	1	5	2	265	3	n/a	n/a
222.023	3.5	criticalItem	n/a	n/a	10503	1	5	3	266	3	n/a	criticalFalse
226.024	3.5	genericItem	n/a	n/a	10504	1	5	4	267	3	n/a	n/a
230.023	3.5	criticalItem	n/a	n/a	10505	1	5	5	268	3	n/a	criticalTrue
234.024	3.5	genericItem	1	0.906	10506	1	5	6	269	3	1	n/a
238.024	3.5	genericItem	n/a	n/a	10507	1	5	7	270	3	n/a	n/a
242.023	3.5	genericItem	1	0.391	10508	1	5	8	271	3	1	n/a
246.024	3.5	genericItem	n/a	n/a	10509	1	5	9	272	3	n/a	n/a
250.023	3.5	genericItem	n/a	n/a	10510	1	5	10	273	3	n/a	n/a
254.024	3.5	genericItem	n/a	n/a	10511	1	5	11	274	3	n/a	n/a
258.024	3.5	genericItem	n/a	n/a	10512	1	5	12	275	3	n/a	n/a
262.023	3.5	genericItem	n/a	n/a	10513	1	5	13	276	3	n/a	n/a
266.023	3.5	controlItem	n/a	n/a	10514	1	5	14	277	3	n/a	controlTrue
270.023	3.5	controlItem	n/a	n/a	10515	1	5	15	278	3	n/a	controlFoil2
274.025	3.5	criticalItem	n/a	n/a	10516	1	5	16	279	3	n/a	criticalTrue
278.024	3.5	controlItem	n/a	n/a	10517	1	5	17	280	3	n/a	controlFoil2
282.023	3.5	controlItem	n/a	n/a	10518	1	5	18	281	3	n/a	controlFoil2
286.024	3.5	criticalItem	n/a	n/a	10519	1	5	19	282	3	n/a	criticalFalse
290.024	3.5	genericItem	1	0.522	10520	1	5	20	283	3	1	n/a
294.023	3.5	criticalItem	n/a	n/a	10521	1	5	21	284	3	n/a	criticalFalse
298.025	3.5	controlItem	n/a	n/a	10522	1	5	22	285	3	n/a	controlTrue
302.024	3.5	criticalItem	n/a	n/a	10523	1	5	23	286	3	n/a	criticalFalse
306.025	3.5	controlItem	n/a	n/a	10524	1	5	24	287	3	n/a	controlTrue
310.024	3.5	controlItem	n/a	n/a	10525	1	5	25	288	3	n/a	controlFoil1
314.023	3.5	criticalItem	n/a	n/a	10526	1	5	26	289	3	n/a	criticalFalse
318.024	3.5	controlItem	n/a	n/a	10527	1	5	27	290	3	n/a	controlFoil1
322.024	3.5	genericItem	n/a	n/a	10528	1	5	28	291	3	n/a	n/a
326.024	3.5	genericItem	n/a	n/a	10529	1	5	29	292	3	n/a	n/a
330.023	3.5	genericItem	n/a	n/a	10530	1	5	30	293	3	n/a	n/a
334.024	3.5	criticalItem	n/a	n/a	10531	1	5	31	294	3	n/a	criticalTrue
338.024	3.5	controlItem	n/a	n/a	10532	1	5	32	295	3	n/a	controlTrue
342.024	3.5	genericItem	n/a	n/a	10533	1	5	33	296	3	n/a	n/a
346.025	3.5	genericItem	n/a	n/a	10534	1	5	34	297	3	n/a	n/a
350.023	3.5	genericItem	n/a	n/a	10535	1	5	35	298	3	n/a	n/a
354.023	3.5	genericItem	n/a	n/a	10536	1	5	36	299	3	n/a	n/a
358.023	3.5	genericItem	n/a	n/a	10537	1	5	37	300	3	n/a	n/a
362.024	3.5	genericItem	n/a	n/a	10538	1	5	38	301	3	n/a	n/a
366.023	3.5	criticalItem	n/a	n/a	10539	1	5	39	302	3	n/a	criticalFalse
370.023	3.5	genericItem	n/a	n/a	10540	1	5	40	303	3	n/a	n/a
374.025	3.5	criticalItem	n/a	n/a	10541	1	5	41	304	3	n/a	criticalTrue
378.024	3.5	controlItem	n/a	n/a	10542	1	5	42	305	3	n/a	controlFoil1
382.022	3.5	genericItem	n/a	n/a	10543	1	5	43	306	3	n/a	n/a
386.023	3.5	genericItem	n/a	n/a	10544	1	5	44	307	3	n/a	n/a
390.023	3.5	genericItem	n/a	n/a	10545	1	5	45	308	3	n/a	n/a
394.023	3.5	controlItem	n/a	n/a	10546	1	5	46	309	3	n/a	controlTrue
398.024	3.5	criticalItem	n/a	n/a	10547	1	5	47	310	3	n/a	criticalFalse
402.024	3.5	genericItem	n/a	n/a	10548	1	5	48	311	3	n/a	n/a
406.023	3.5	controlItem	n/a	n/a	10549	1	5	49	312	3	n/a	controlTrue
410.023	3.5	criticalItem	n/a	n/a	10550	1	5	50	313	3	n/a	criticalTrue
414.022	n/a	n/a	n/a	n/a	90500	9	5	0	314	3	n/a	n/a
418.024	n/a	n/a	n/a	n/a	90000	5	0	0	315	3	n/a	n/a
