onset	duration	trial_type	response	response_time	stim_id	stim_version	stim_events	stim_slides	trial_id	run_id	stim_redcross	subsequent_response_type
2.0296	n/a	n/a	n/a	n/a	80700	8	7	0	1	1	n/a	n/a
6.025	3.5	genericItem	n/a	n/a	10701	1	7	1	2	1	n/a	n/a
10.0241	3.5	genericItem	n/a	n/a	10702	1	7	2	3	1	n/a	n/a
14.0242	3.5	controlItem	n/a	n/a	10703	1	7	3	4	1	n/a	controlTrue
18.025	3.5	criticalItem	n/a	n/a	10704	1	7	4	5	1	n/a	criticalTrue
22.0236	3.5	controlItem	n/a	n/a	10705	1	7	5	6	1	n/a	controlTrue
26.0234	3.5	genericItem	n/a	n/a	10706	1	7	6	7	1	n/a	n/a
30.0234	3.5	controlItem	n/a	n/a	10707	1	7	7	8	1	n/a	controlTrue
34.0241	3.5	controlItem	n/a	n/a	10708	1	7	8	9	1	n/a	controlTrue
38.0249	3.5	criticalItem	n/a	n/a	10709	1	7	9	10	1	n/a	criticalFalse
42.0252	3.5	genericItem	1	0.508	10710	1	7	10	11	1	1	n/a
46.0243	3.5	controlItem	n/a	n/a	10711	1	7	11	12	1	n/a	controlTrue
50.0238	3.5	criticalItem	n/a	n/a	10712	1	7	12	13	1	n/a	criticalFoil
54.025	3.5	genericItem	1	0.419	10713	1	7	13	14	1	1	n/a
58.0243	3.5	controlItem	n/a	n/a	10714	1	7	14	15	1	n/a	controlTrue
62.0251	3.5	genericItem	n/a	n/a	10715	1	7	15	16	1	n/a	n/a
66.0241	3.5	genericItem	n/a	n/a	10716	1	7	16	17	1	n/a	n/a
70.025	3.5	genericItem	n/a	n/a	10717	1	7	17	18	1	n/a	n/a
74.0251	3.5	controlItem	n/a	n/a	10718	1	7	18	19	1	n/a	controlFoil2
78.0244	3.5	criticalItem	n/a	n/a	10719	1	7	19	20	1	n/a	criticalFalse
82.0239	3.5	controlItem	n/a	n/a	10720	1	7	20	21	1	n/a	controlFoil2
86.0245	3.5	criticalItem	n/a	n/a	10721	1	7	21	22	1	n/a	criticalFalse
90.0254	3.5	genericItem	n/a	n/a	10722	1	7	22	23	1	n/a	n/a
94.0251	3.5	genericItem	n/a	n/a	10723	1	7	23	24	1	n/a	n/a
98.0248	3.5	genericItem	n/a	n/a	10724	1	7	24	25	1	n/a	n/a
102.036	3.5	genericItem	n/a	n/a	10725	1	7	25	26	1	n/a	n/a
106.025	3.5	criticalItem	n/a	n/a	10726	1	7	26	27	1	n/a	criticalFalse
110.025	3.5	genericItem	n/a	n/a	10727	1	7	27	28	1	n/a	n/a
114.024	3.5	controlItem	n/a	n/a	10728	1	7	28	29	1	n/a	controlTrue
118.023	3.5	criticalItem	n/a	n/a	10729	1	7	29	30	1	n/a	criticalTrue
122.024	3.5	genericItem	n/a	n/a	10730	1	7	30	31	1	n/a	n/a
126.025	3.5	genericItem	n/a	n/a	10731	1	7	31	32	1	n/a	n/a
130.024	3.5	genericItem	n/a	n/a	10732	1	7	32	33	1	n/a	n/a
134.025	3.5	genericItem	n/a	n/a	10733	1	7	33	34	1	n/a	n/a
138.025	3.5	controlItem	n/a	n/a	10734	1	7	34	35	1	n/a	controlTrue
142.024	3.5	criticalItem	n/a	n/a	10735	1	7	35	36	1	n/a	criticalFoil
146.024	3.5	genericItem	n/a	n/a	10736	1	7	36	37	1	n/a	n/a
150.025	3.5	genericItem	n/a	n/a	10737	1	7	37	38	1	n/a	n/a
154.025	3.5	genericItem	n/a	n/a	10738	1	7	38	39	1	n/a	n/a
158.024	3.5	criticalItem	n/a	n/a	10739	1	7	39	40	1	n/a	criticalFalse
162.026	3.5	controlItem	n/a	n/a	10740	1	7	40	41	1	n/a	controlTrue
166.025	3.5	genericItem	n/a	n/a	10741	1	7	41	42	1	n/a	n/a
170.025	3.5	genericItem	n/a	n/a	10742	1	7	42	43	1	n/a	n/a
174.024	3.5	genericItem	n/a	n/a	10743	1	7	43	44	1	n/a	n/a
178.024	3.5	criticalItem	n/a	n/a	10744	1	7	44	45	1	n/a	criticalTrue
182.024	3.5	genericItem	n/a	n/a	10745	1	7	45	46	1	n/a	n/a
186.024	3.5	criticalItem	n/a	n/a	10746	1	7	46	47	1	n/a	criticalTrue
190.024	3.5	genericItem	n/a	n/a	10747	1	7	47	48	1	n/a	n/a
194.024	3.5	genericItem	n/a	n/a	10748	1	7	48	49	1	n/a	n/a
198.024	3.5	criticalItem	n/a	n/a	10749	1	7	49	50	1	n/a	criticalTrue
202.023	3.5	controlItem	n/a	n/a	10750	1	7	50	51	1	n/a	controlTrue
206.024	n/a	n/a	n/a	n/a	90700	9	7	0	52	1	n/a	n/a
210.024	n/a	n/a	n/a	n/a	81000	8	10	0	53	1	n/a	n/a
214.025	3.5	genericItem	n/a	n/a	11001	1	10	1	54	1	n/a	n/a
218.026	3.5	genericItem	n/a	n/a	11002	1	10	2	55	1	n/a	n/a
222.026	3.5	criticalItem	n/a	n/a	11003	1	10	3	56	1	n/a	criticalFalse
226.025	3.5	genericItem	n/a	n/a	11004	1	10	4	57	1	n/a	n/a
230.025	3.5	criticalItem	n/a	n/a	11005	1	10	5	58	1	n/a	criticalTrue
234.025	3.5	genericItem	n/a	n/a	11006	1	10	6	59	1	n/a	n/a
238.026	3.5	genericItem	1	0.436	11007	1	10	7	60	1	1	n/a
242.025	3.5	criticalItem	n/a	n/a	11008	1	10	8	61	1	n/a	criticalTrue
246.025	3.5	genericItem	n/a	n/a	11009	1	10	9	62	1	n/a	n/a
250.025	3.5	criticalItem	n/a	n/a	11010	1	10	10	63	1	n/a	criticalTrue
254.024	3.5	genericItem	n/a	n/a	11011	1	10	11	64	1	n/a	n/a
258.024	3.5	genericItem	n/a	n/a	11012	1	10	12	65	1	n/a	n/a
262.025	3.5	genericItem	n/a	n/a	11013	1	10	13	66	1	n/a	n/a
266.025	3.5	genericItem	n/a	n/a	11014	1	10	14	67	1	n/a	n/a
270.024	3.5	criticalItem	n/a	n/a	11015	1	10	15	68	1	n/a	criticalFalse
274.026	3.5	genericItem	n/a	n/a	11016	1	10	16	69	1	n/a	n/a
278.024	3.5	controlItem	n/a	n/a	11017	1	10	17	70	1	n/a	controlFoil2
282.025	3.5	criticalItem	n/a	n/a	11018	1	10	18	71	1	n/a	criticalTrue
286.025	3.5	controlItem	n/a	n/a	11019	1	10	19	72	1	n/a	controlTrue
290.024	3.5	criticalItem	n/a	n/a	11020	1	10	20	73	1	n/a	criticalTrue
294.024	3.5	controlItem	n/a	n/a	11021	1	10	21	74	1	n/a	controlTrue
298.025	3.5	genericItem	n/a	n/a	11022	1	10	22	75	1	n/a	n/a
302.025	3.5	criticalItem	n/a	n/a	11023	1	10	23	76	1	n/a	criticalFalse
306.025	3.5	genericItem	n/a	n/a	11024	1	10	24	77	1	n/a	n/a
310.025	3.5	genericItem	n/a	n/a	11025	1	10	25	78	1	n/a	n/a
314.024	3.5	criticalItem	n/a	n/a	11026	1	10	26	79	1	n/a	criticalFalse
318.025	3.5	genericItem	n/a	n/a	11027	1	10	27	80	1	n/a	n/a
322.025	3.5	controlItem	n/a	n/a	11028	1	10	28	81	1	n/a	controlTrue
326.024	3.5	controlItem	n/a	n/a	11029	1	10	29	82	1	n/a	controlTrue
330.024	3.5	genericItem	n/a	n/a	11030	1	10	30	83	1	n/a	n/a
334.024	3.5	controlItem	n/a	n/a	11031	1	10	31	84	1	n/a	controlFoil2
338.024	3.5	genericItem	n/a	n/a	11032	1	10	32	85	1	n/a	n/a
342.024	3.5	criticalItem	n/a	n/a	11033	1	10	33	86	1	n/a	criticalFalse
346.024	3.5	genericItem	1	0.437	11034	1	10	34	87	1	1	n/a
350.024	3.5	criticalItem	n/a	n/a	11035	1	10	35	88	1	n/a	criticalFalse
354.023	3.5	genericItem	n/a	n/a	11036	1	10	36	89	1	n/a	n/a
358.024	3.5	controlItem	n/a	n/a	11037	1	10	37	90	1	n/a	controlTrue
362.023	3.5	controlItem	n/a	n/a	11038	1	10	38	91	1	n/a	controlTrue
366.024	3.5	controlItem	n/a	n/a	11039	1	10	39	92	1	n/a	controlTrue
370.024	3.5	controlItem	n/a	n/a	11040	1	10	40	93	1	n/a	controlTrue
374.024	3.5	genericItem	n/a	n/a	11041	1	10	41	94	1	n/a	n/a
378.025	3.5	genericItem	1	0.475	11042	1	10	42	95	1	1	n/a
382.024	3.5	genericItem	n/a	n/a	11043	1	10	43	96	1	n/a	n/a
386.023	3.5	genericItem	n/a	n/a	11044	1	10	44	97	1	n/a	n/a
390.024	3.5	criticalItem	n/a	n/a	11045	1	10	45	98	1	n/a	criticalTrue
394.024	3.5	controlItem	n/a	n/a	11046	1	10	46	99	1	n/a	controlTrue
398.024	3.5	genericItem	n/a	n/a	11047	1	10	47	100	1	n/a	n/a
402.025	3.5	genericItem	n/a	n/a	11048	1	10	48	101	1	n/a	n/a
406.024	3.5	controlItem	n/a	n/a	11049	1	10	49	102	1	n/a	controlTrue
410.025	3.5	genericItem	1	0.491	11050	1	10	50	103	1	1	n/a
414.023	n/a	n/a	n/a	n/a	91000	9	10	0	104	1	n/a	n/a
418.024	n/a	n/a	n/a	n/a	90000	5	0	0	105	1	n/a	n/a
