onset	duration	trial_type	response	response_time	stim_id	stim_events	stim_slides	trial_id	run_id	stim_type	response_type
2.00733	n/a	n/a	n/a	n/a	80100	1	0	149	2	8	n/a
12.006	3.5	criticalItem	n/a	n/a	10119	1	19	150	2	1	n/a
15.4891	3.0	criticalItem	n/a	n/a	30119	1	19	151	2	0	n/a
18.49	3.0	criticalItem	True	0.715	30119	1	19	152	2	3	criticalTrue
22.0049	3.5	controlItem	n/a	n/a	10118	1	18	153	2	1	n/a
25.4886	3.0	controlItem	n/a	n/a	60118	1	18	154	2	0	n/a
28.4894	3.0	controlItem	True	0.85	60118	1	18	155	2	6	controlTrue
32.0047	3.5	controlItem	n/a	n/a	10140	1	40	156	2	1	n/a
35.4879	3.0	controlItem	n/a	n/a	20140	1	40	157	2	0	n/a
38.486	3.0	controlItem	True	0.589	20140	1	40	158	2	2	controlTrue
42.0032	3.5	controlItem	n/a	n/a	10104	1	4	159	2	1	n/a
45.4864	3.0	controlItem	n/a	n/a	40104	1	4	160	2	0	n/a
48.4857	3.0	controlItem	Foil1	1.067	40104	1	4	161	2	4	controlFoil1
52.0022	3.5	controlItem	n/a	n/a	10121	1	21	162	2	1	n/a
55.4855	3.0	controlItem	n/a	n/a	50121	1	21	163	2	0	n/a
58.4847	3.0	controlItem	Foil1	0.42	50121	1	21	164	2	5	controlFoil1
62.0012	3.5	criticalItem	n/a	n/a	10117	1	17	165	2	1	n/a
65.4854	3.0	criticalItem	n/a	n/a	20117	1	17	166	2	0	n/a
68.4847	3.0	criticalItem	True	1.432	20117	1	17	167	2	2	criticalTrue
72.0007	3.5	criticalItem	n/a	n/a	10114	1	14	168	2	1	n/a
75.4846	3.0	criticalItem	n/a	n/a	50114	1	14	169	2	0	n/a
78.4834	3.0	criticalItem	True	0.537	50114	1	14	170	2	5	criticalTrue
81.9997	3.5	criticalItem	n/a	n/a	10136	1	36	171	2	1	n/a
85.482	3.0	criticalItem	n/a	n/a	20136	1	36	172	2	0	n/a
88.4817	3.0	criticalItem	False	0.52	20136	1	36	173	2	2	criticalFalse
92.0147	3.5	controlItem	n/a	n/a	10107	1	7	174	2	1	n/a
95.4984	3.0	controlItem	n/a	n/a	70107	1	7	175	2	0	n/a
98.4984	3.0	controlItem	True	0.315	70107	1	7	176	2	7	controlTrue
102.014	3.5	controlItem	n/a	n/a	10125	1	25	177	2	1	n/a
105.498	3.0	controlItem	n/a	n/a	30125	1	25	178	2	0	n/a
108.496	3.0	controlItem	True	1.088	30125	1	25	179	2	3	controlTrue
112.014	3.5	controlItem	n/a	n/a	10123	1	23	180	2	1	n/a
115.498	3.0	controlItem	n/a	n/a	20123	1	23	181	2	0	n/a
118.496	3.0	controlItem	True	1.124	20123	1	23	182	2	2	controlTrue
122.013	3.5	controlItem	n/a	n/a	10146	1	46	183	2	1	n/a
125.496	3.0	controlItem	n/a	n/a	40146	1	46	184	2	0	n/a
128.495	3.0	controlItem	True	0.445	40146	1	46	185	2	4	controlTrue
132.01	3.5	controlItem	n/a	n/a	10132	1	32	186	2	1	n/a
135.494	3.0	controlItem	n/a	n/a	50132	1	32	187	2	0	n/a
138.494	3.0	controlItem	True	0.529	50132	1	32	188	2	5	controlTrue
142.01	3.5	criticalItem	n/a	n/a	10128	1	28	189	2	1	n/a
145.493	3.0	criticalItem	n/a	n/a	50128	1	28	190	2	0	n/a
148.493	3.0	criticalItem	False	1.173	50128	1	28	191	2	5	criticalFalse
152.01	3.5	controlItem	n/a	n/a	10116	1	16	192	2	1	n/a
155.491	3.0	controlItem	n/a	n/a	70116	1	16	193	2	0	n/a
158.493	3.0	controlItem	Foil1	1.18	70116	1	16	194	2	7	controlFoil1
162.008	3.5	criticalItem	n/a	n/a	10122	1	22	195	2	1	n/a
165.491	3.0	criticalItem	n/a	n/a	30122	1	22	196	2	0	n/a
168.491	3.0	criticalItem	True	0.444	30122	1	22	197	2	3	criticalTrue
172.007	3.5	criticalItem	n/a	n/a	10126	1	26	198	2	1	n/a
175.49	3.0	criticalItem	n/a	n/a	40126	1	26	199	2	0	n/a
178.489	3.0	criticalItem	True	0.296	40126	1	26	200	2	4	criticalTrue
182.005	3.5	criticalItem	n/a	n/a	10150	1	50	201	2	1	n/a
185.489	3.0	criticalItem	n/a	n/a	40150	1	50	202	2	0	n/a
188.489	3.0	criticalItem	False	0.709	40150	1	50	203	2	4	criticalFalse
192.004	3.5	controlItem	n/a	n/a	10149	1	49	204	2	1	n/a
195.488	3.0	controlItem	n/a	n/a	50149	1	49	205	2	0	n/a
198.488	3.0	controlItem	Foil1	0.43	50149	1	49	206	2	5	controlFoil1
202.003	3.5	controlItem	n/a	n/a	10124	1	24	207	2	1	n/a
205.487	3.0	controlItem	n/a	n/a	30124	1	24	208	2	0	n/a
208.486	3.0	controlItem	True	0.621	30124	1	24	209	2	3	controlTrue
212.003	3.5	criticalItem	n/a	n/a	10110	1	10	210	2	1	n/a
215.486	3.0	criticalItem	n/a	n/a	50110	1	10	211	2	0	n/a
218.487	3.0	criticalItem	True	0.594	50110	1	10	212	2	5	criticalTrue
222.002	3.5	criticalItem	n/a	n/a	10112	1	12	213	2	1	n/a
225.486	3.0	criticalItem	n/a	n/a	70112	1	12	214	2	0	n/a
228.484	3.0	criticalItem	False	0.658	70112	1	12	215	2	7	criticalFalse
232.001	3.5	criticalItem	n/a	n/a	10141	1	41	216	2	1	n/a
235.483	3.0	criticalItem	n/a	n/a	40141	1	41	217	2	0	n/a
238.483	3.0	criticalItem	False	0.85	40141	1	41	218	2	4	criticalFalse
242	3.5	criticalItem	n/a	n/a	10131	1	31	219	2	1	n/a
245.483	3.0	criticalItem	n/a	n/a	60131	1	31	220	2	0	n/a
248.483	3.0	criticalItem	False	1.082	60131	1	31	221	2	6	criticalFalse
252.016	n/a	n/a	n/a	n/a	90100	1	0	222	2	9	n/a
256.016	n/a	n/a	n/a	n/a	80300	3	0	223	2	8	n/a
266.015	3.5	controlItem	n/a	n/a	10313	3	13	224	2	1	n/a
269.498	3.0	controlItem	n/a	n/a	20313	3	13	225	2	0	n/a
272.497	3.0	controlItem	True	0.36	20313	3	13	226	2	2	controlTrue
276.013	3.5	criticalItem	n/a	n/a	10336	3	36	227	2	1	n/a
279.495	3.0	criticalItem	n/a	n/a	40336	3	36	228	2	0	n/a
282.496	3.0	criticalItem	False	0.843	40336	3	36	229	2	4	criticalFalse
286.014	3.5	controlItem	n/a	n/a	10317	3	17	230	2	1	n/a
289.496	3.0	controlItem	n/a	n/a	60317	3	17	231	2	0	n/a
292.495	3.0	controlItem	True	1.096	60317	3	17	232	2	6	controlTrue
296.011	3.5	criticalItem	n/a	n/a	10330	3	30	233	2	1	n/a
299.496	3.0	criticalItem	n/a	n/a	20330	3	30	234	2	0	n/a
302.494	3.0	criticalItem	True	0.683	20330	3	30	235	2	2	criticalTrue
306.009	3.5	controlItem	n/a	n/a	10303	3	3	236	2	1	n/a
309.493	3.0	controlItem	n/a	n/a	70303	3	3	237	2	0	n/a
312.493	3.0	controlItem	True	0.646	70303	3	3	238	2	7	controlTrue
316.01	3.5	criticalItem	n/a	n/a	10347	3	47	239	2	1	n/a
319.493	3.0	criticalItem	n/a	n/a	60347	3	47	240	2	0	n/a
322.492	3.0	criticalItem	True	1.442	60347	3	47	241	2	6	criticalTrue
326.008	3.5	criticalItem	n/a	n/a	10327	3	27	242	2	1	n/a
329.491	3.0	criticalItem	n/a	n/a	50327	3	27	243	2	0	n/a
332.491	3.0	criticalItem	True	0.921	50327	3	27	244	2	5	criticalTrue
336.007	3.5	criticalItem	n/a	n/a	10344	3	44	245	2	1	n/a
339.491	3.0	criticalItem	ForbiddenKey	1.545	40344	3	44	246	2	0	n/a
342.491	3.0	criticalItem	True	0.345	40344	3	44	247	2	4	criticalTrue
346.006	3.5	controlItem	n/a	n/a	10348	3	48	248	2	1	n/a
349.49	3.0	controlItem	n/a	n/a	70348	3	48	249	2	0	n/a
352.489	3.0	controlItem	True	1.265	70348	3	48	250	2	7	controlTrue
356.005	3.5	criticalItem	n/a	n/a	10324	3	24	251	2	1	n/a
359.489	3.0	criticalItem	n/a	n/a	70324	3	24	252	2	0	n/a
362.488	3.0	criticalItem	True	0.961	70324	3	24	253	2	7	criticalTrue
366.005	3.5	controlItem	n/a	n/a	10329	3	29	254	2	1	n/a
369.488	3.0	controlItem	n/a	n/a	50329	3	29	255	2	0	n/a
372.487	3.0	controlItem	True	0.926	50329	3	29	256	2	5	controlTrue
376.003	3.5	criticalItem	n/a	n/a	10341	3	41	257	2	1	n/a
379.487	3.0	criticalItem	n/a	n/a	30341	3	41	258	2	0	n/a
382.487	3.0	criticalItem	Foil	1.367	30341	3	41	259	2	3	criticalFoil
386.002	3.5	criticalItem	n/a	n/a	10322	3	22	260	2	1	n/a
389.485	3.0	criticalItem	n/a	n/a	50322	3	22	261	2	0	n/a
392.486	3.0	criticalItem	True	0.636	50322	3	22	262	2	5	criticalTrue
396.001	3.5	criticalItem	n/a	n/a	10332	3	32	263	2	1	n/a
399.485	3.0	criticalItem	n/a	n/a	30332	3	32	264	2	0	n/a
402.485	3.0	criticalItem	True	0.794	30332	3	32	265	2	3	criticalTrue
406	3.5	controlItem	n/a	n/a	10350	3	50	266	2	1	n/a
409.483	3.0	controlItem	n/a	n/a	50350	3	50	267	2	0	n/a
412.483	3.0	controlItem	Foil1	1.7	50350	3	50	268	2	5	controlFoil1
415.999	3.5	criticalItem	n/a	n/a	10319	3	19	269	2	1	n/a
419.482	3.0	criticalItem	n/a	n/a	70319	3	19	270	2	0	n/a
422.484	3.0	criticalItem	Foil	0.724	70319	3	19	271	2	7	criticalFoil
426.014	3.5	controlItem	n/a	n/a	10325	3	25	272	2	1	n/a
429.499	3.0	controlItem	n/a	n/a	70325	3	25	273	2	0	n/a
432.497	3.0	controlItem	True	0.445	70325	3	25	274	2	7	controlTrue
436.015	3.5	controlItem	n/a	n/a	10345	3	45	275	2	1	n/a
439.497	3.0	controlItem	n/a	n/a	30345	3	45	276	2	0	n/a
442.496	3.0	controlItem	True	0.949	30345	3	45	277	2	3	controlTrue
446.013	3.5	criticalItem	n/a	n/a	10316	3	16	278	2	1	n/a
449.496	3.0	criticalItem	n/a	n/a	40316	3	16	279	2	0	n/a
452.497	3.0	criticalItem	False	0.407	40316	3	16	280	2	4	criticalFalse
456.012	3.5	controlItem	n/a	n/a	10309	3	9	281	2	1	n/a
459.496	3.0	controlItem	n/a	n/a	30309	3	9	282	2	0	n/a
462.494	3.0	controlItem	Foil2	2.104	30309	3	9	283	2	3	controlFoil2
466.011	3.5	criticalItem	n/a	n/a	10305	3	5	284	2	1	n/a
469.495	3.0	criticalItem	n/a	n/a	20305	3	5	285	2	0	n/a
472.494	3.0	criticalItem	Foil	1.585	20305	3	5	286	2	2	criticalFoil
476.012	3.5	controlItem	n/a	n/a	10331	3	31	287	2	1	n/a
479.493	3.0	controlItem	n/a	n/a	50331	3	31	288	2	0	n/a
482.493	3.0	controlItem	True	0.569	50331	3	31	289	2	5	controlTrue
486.01	3.5	controlItem	n/a	n/a	10320	3	20	290	2	1	n/a
489.491	3.0	controlItem	n/a	n/a	60320	3	20	291	2	0	n/a
492.492	3.0	controlItem	True	0.545	60320	3	20	292	2	6	controlTrue
496.007	3.5	controlItem	n/a	n/a	10342	3	42	293	2	1	n/a
499.491	3.0	controlItem	n/a	n/a	70342	3	42	294	2	0	n/a
502.491	3.0	controlItem	Foil2	1.347	70342	3	42	295	2	7	controlFoil2
506.007	n/a	n/a	n/a	n/a	90300	3	0	296	2	9	n/a
