onset	duration	trial_type	response	response_time	stim_id	stim_version	stim_events	stim_slides	trial_id	run_id	stim_redcross	subsequent_response_type
2.0335	n/a	n/a	n/a	n/a	80700	8	7	0	316	4	n/a	n/a
6.0251	3.5	genericItem	n/a	n/a	10701	1	7	1	317	4	n/a	n/a
10.0233	3.5	genericItem	1	0.36	10702	1	7	2	318	4	1	n/a
14.0231	3.5	controlItem	n/a	n/a	10703	1	7	3	319	4	n/a	controlFoil1
18.091	3.5	criticalItem	n/a	n/a	10704	1	7	4	320	4	n/a	criticalTrue
22.0238	3.5	controlItem	n/a	n/a	10705	1	7	5	321	4	n/a	controlTrue
26.0232	3.5	genericItem	n/a	n/a	10706	1	7	6	322	4	n/a	n/a
30.0239	3.5	controlItem	n/a	n/a	10707	1	7	7	323	4	n/a	controlTrue
34.0233	3.5	controlItem	n/a	n/a	10708	1	7	8	324	4	n/a	controlFoil1
38.0639	3.5	criticalItem	n/a	n/a	10709	1	7	9	325	4	n/a	criticalTrue
42.0253	3.5	genericItem	n/a	n/a	10710	1	7	10	326	4	n/a	n/a
46.0227	3.5	controlItem	n/a	n/a	10711	1	7	11	327	4	n/a	controlFoil1
50.0678	3.5	criticalItem	n/a	n/a	10712	1	7	12	328	4	n/a	criticalFoil
54.0236	3.5	genericItem	n/a	n/a	10713	1	7	13	329	4	n/a	n/a
58.0231	3.5	controlItem	n/a	n/a	10714	1	7	14	330	4	n/a	controlFoil1
62.0238	3.5	genericItem	n/a	n/a	10715	1	7	15	331	4	n/a	n/a
66.0227	3.5	genericItem	n/a	n/a	10716	1	7	16	332	4	n/a	n/a
70.0226	3.5	genericItem	n/a	n/a	10717	1	7	17	333	4	n/a	n/a
74.024	3.5	controlItem	n/a	n/a	10718	1	7	18	334	4	n/a	controlTrue
78.0734	3.5	criticalItem	n/a	n/a	10719	1	7	19	335	4	n/a	criticalTrue
82.0236	3.5	controlItem	n/a	n/a	10720	1	7	20	336	4	n/a	controlTrue
86.0614	3.5	criticalItem	n/a	n/a	10721	1	7	21	337	4	n/a	criticalFalse
90.0252	3.5	genericItem	n/a	n/a	10722	1	7	22	338	4	n/a	n/a
94.0229	3.5	genericItem	n/a	n/a	10723	1	7	23	339	4	n/a	n/a
98.0239	3.5	genericItem	n/a	n/a	10724	1	7	24	340	4	n/a	n/a
102.024	3.5	genericItem	1	0.533	10725	1	7	25	341	4	1	n/a
106.085	3.5	criticalItem	n/a	n/a	10726	1	7	26	342	4	n/a	criticalTrue
110.023	3.5	genericItem	n/a	n/a	10727	1	7	27	343	4	n/a	n/a
114.023	3.5	controlItem	n/a	n/a	10728	1	7	28	344	4	n/a	controlTrue
118.102	3.5	criticalItem	n/a	n/a	10729	1	7	29	345	4	n/a	criticalTrue
122.023	3.5	genericItem	n/a	n/a	10730	1	7	30	346	4	n/a	n/a
126.023	3.5	genericItem	n/a	n/a	10731	1	7	31	347	4	n/a	n/a
130.023	3.5	genericItem	n/a	n/a	10732	1	7	32	348	4	n/a	n/a
134.023	3.5	genericItem	n/a	n/a	10733	1	7	33	349	4	n/a	n/a
138.022	3.5	controlItem	n/a	n/a	10734	1	7	34	350	4	n/a	controlTrue
142.08	3.5	criticalItem	n/a	n/a	10735	1	7	35	351	4	n/a	criticalTrue
146.025	3.5	genericItem	n/a	n/a	10736	1	7	36	352	4	n/a	n/a
150.023	3.5	genericItem	1	0.464	10737	1	7	37	353	4	1	n/a
154.023	3.5	genericItem	n/a	n/a	10738	1	7	38	354	4	n/a	n/a
158.315	3.5	criticalItem	n/a	n/a	10739	1	7	39	355	4	n/a	criticalFoil
162.022	3.5	controlItem	n/a	n/a	10740	1	7	40	356	4	n/a	controlTrue
166.024	3.5	genericItem	n/a	n/a	10741	1	7	41	357	4	n/a	n/a
170.024	3.5	genericItem	n/a	n/a	10742	1	7	42	358	4	n/a	n/a
174.023	3.5	genericItem	n/a	n/a	10743	1	7	43	359	4	n/a	n/a
178.084	3.5	criticalItem	n/a	n/a	10744	1	7	44	360	4	n/a	criticalFalse
182.023	3.5	genericItem	1	0.782	10745	1	7	45	361	4	1	n/a
186.067	3.5	criticalItem	n/a	n/a	10746	1	7	46	362	4	n/a	criticalFalse
190.025	3.5	genericItem	n/a	n/a	10747	1	7	47	363	4	n/a	n/a
194.022	3.5	genericItem	n/a	n/a	10748	1	7	48	364	4	n/a	n/a
198.115	3.5	criticalItem	n/a	n/a	10749	1	7	49	365	4	n/a	criticalFalse
202.025	3.5	controlItem	n/a	n/a	10750	1	7	50	366	4	n/a	controlTrue
206.019	n/a	n/a	n/a	n/a	90700	9	7	0	367	4	n/a	n/a
210.02	n/a	n/a	n/a	n/a	80200	8	2	0	368	4	n/a	n/a
214.029	3.5	genericItem	n/a	n/a	10201	1	2	1	369	4	n/a	n/a
218.027	3.5	genericItem	n/a	n/a	10202	1	2	2	370	4	n/a	n/a
222.026	3.5	genericItem	n/a	n/a	10203	1	2	3	371	4	n/a	n/a
226.025	3.5	controlItem	n/a	n/a	10204	1	2	4	372	4	n/a	controlTrue
230.025	3.5	controlItem	n/a	n/a	10205	1	2	5	373	4	n/a	controlFoil1
234.026	3.5	genericItem	n/a	n/a	10206	1	2	6	374	4	n/a	n/a
238.025	3.5	controlItem	n/a	n/a	10207	1	2	7	375	4	n/a	controlTrue
242.023	3.5	genericItem	n/a	n/a	10208	1	2	8	376	4	n/a	n/a
246.024	3.5	genericItem	1	0.527	10209	1	2	9	377	4	1	n/a
250.024	3.5	genericItem	n/a	n/a	10210	1	2	10	378	4	n/a	n/a
254.024	3.5	genericItem	n/a	n/a	10211	1	2	11	379	4	n/a	n/a
258.025	3.5	genericItem	n/a	n/a	10212	1	2	12	380	4	n/a	n/a
262.026	3.5	genericItem	n/a	n/a	10213	1	2	13	381	4	n/a	n/a
266.104	3.5	criticalItem	n/a	n/a	10214	1	2	14	382	4	n/a	criticalTrue
270.025	3.5	genericItem	n/a	n/a	10215	1	2	15	383	4	n/a	n/a
274.026	3.5	genericItem	n/a	n/a	10216	1	2	16	384	4	n/a	n/a
278.025	3.5	controlItem	n/a	n/a	10217	1	2	17	385	4	n/a	controlTrue
282.025	3.5	genericItem	n/a	n/a	10218	1	2	18	386	4	n/a	n/a
286.047	3.5	criticalItem	n/a	n/a	10219	1	2	19	387	4	n/a	criticalFalse
290.024	3.5	genericItem	n/a	n/a	10220	1	2	20	388	4	1	n/a
294.024	3.5	genericItem	n/a	n/a	10221	1	2	21	389	4	n/a	n/a
298.026	3.5	controlItem	n/a	n/a	10222	1	2	22	390	4	n/a	controlTrue
302.104	3.5	criticalItem	n/a	n/a	10223	1	2	23	391	4	n/a	criticalFalse
306.024	3.5	genericItem	1	0.847	10224	1	2	24	392	4	1	n/a
310.121	3.5	criticalItem	n/a	n/a	10225	1	2	25	393	4	n/a	criticalTrue
314.024	3.5	genericItem	n/a	n/a	10226	1	2	26	394	4	n/a	n/a
318.024	3.5	genericItem	n/a	n/a	10227	1	2	27	395	4	n/a	n/a
322.101	3.5	criticalItem	n/a	n/a	10228	1	2	28	396	4	n/a	criticalTrue
326.024	3.5	genericItem	n/a	n/a	10229	1	2	29	397	4	n/a	n/a
330.024	3.5	controlItem	n/a	n/a	10230	1	2	30	398	4	n/a	controlTrue
334.084	3.5	criticalItem	n/a	n/a	10231	1	2	31	399	4	n/a	criticalFalse
338.024	3.5	controlItem	n/a	n/a	10232	1	2	32	400	4	n/a	controlFoil2
342.025	3.5	genericItem	n/a	n/a	10233	1	2	33	401	4	n/a	n/a
346.083	3.5	criticalItem	n/a	n/a	10234	1	2	34	402	4	n/a	criticalFalse
350.023	3.5	controlItem	n/a	n/a	10235	1	2	35	403	4	n/a	controlFoil2
354.095	3.5	criticalItem	n/a	n/a	10236	1	2	36	404	4	n/a	criticalFalse
358.026	3.5	controlItem	n/a	n/a	10237	1	2	37	405	4	n/a	controlFoil2
362.067	3.5	criticalItem	n/a	n/a	10238	1	2	38	406	4	n/a	criticalFalse
366.024	3.5	genericItem	n/a	n/a	10239	1	2	39	407	4	n/a	n/a
370.023	3.5	genericItem	n/a	n/a	10240	1	2	40	408	4	n/a	n/a
374.066	3.5	criticalItem	n/a	n/a	10241	1	2	41	409	4	n/a	criticalFalse
378.024	3.5	controlItem	n/a	n/a	10242	1	2	42	410	4	n/a	controlTrue
382.023	3.5	genericItem	n/a	n/a	10243	1	2	43	411	4	n/a	n/a
386.025	3.5	genericItem	n/a	n/a	10244	1	2	44	412	4	n/a	n/a
390.038	3.5	criticalItem	n/a	n/a	10245	1	2	45	413	4	n/a	criticalFalse
394.023	3.5	controlItem	n/a	n/a	10246	1	2	46	414	4	n/a	controlFoil1
398.027	3.5	genericItem	n/a	n/a	10247	1	2	47	415	4	n/a	n/a
402.029	3.5	controlItem	n/a	n/a	10248	1	2	48	416	4	n/a	controlTrue
406.113	3.5	criticalItem	n/a	n/a	10249	1	2	49	417	4	n/a	criticalFalse
410.029	3.5	genericItem	n/a	n/a	10250	1	2	50	418	4	n/a	n/a
414.019	n/a	n/a	n/a	n/a	90200	9	2	0	419	4	n/a	n/a
418.019	n/a	n/a	n/a	n/a	90000	9	0	0	420	4	n/a	n/a
