onset	duration	trial_type	response	response_time	stim_id	stim_version	stim_events	stim_slides	trial_id	run_id	stim_redcross	subsequent_response_type
2.0916	n/a	n/a	n/a	n/a	80200	8	2	0	211	3	n/a	n/a
6.0731	3.5	genericItem	n/a	n/a	10201	1	2	1	212	3	n/a	n/a
10.0244	3.5	genericItem	n/a	n/a	10202	1	2	2	213	3	n/a	n/a
14.0822	3.5	genericItem	n/a	n/a	10203	1	2	3	214	3	n/a	n/a
18.0241	3.5	controlItem	n/a	n/a	10204	1	2	4	215	3	n/a	controlTrue
22.0239	3.5	controlItem	n/a	n/a	10205	1	2	5	216	3	n/a	controlTrue
26.0228	3.5	genericItem	1	0.485	10206	1	2	6	217	3	1	n/a
30.0252	3.5	controlItem	n/a	n/a	10207	1	2	7	218	3	n/a	controlTrue
34.0246	3.5	genericItem	n/a	n/a	10208	1	2	8	219	3	n/a	n/a
38.0236	3.5	genericItem	n/a	n/a	10209	1	2	9	220	3	n/a	n/a
42.0235	3.5	genericItem	n/a	n/a	10210	1	2	10	221	3	n/a	n/a
46.025	3.5	genericItem	n/a	n/a	10211	1	2	11	222	3	n/a	n/a
50.0239	3.5	genericItem	n/a	n/a	10212	1	2	12	223	3	n/a	n/a
54.0736	3.5	genericItem	n/a	n/a	10213	1	2	13	224	3	n/a	n/a
58.0564	3.5	criticalItem	n/a	n/a	10214	1	2	14	225	3	n/a	criticalFalse
62.0901	3.5	genericItem	n/a	n/a	10215	1	2	15	226	3	n/a	n/a
66.038	3.5	genericItem	n/a	n/a	10216	1	2	16	227	3	n/a	n/a
70.0823	3.5	controlItem	n/a	n/a	10217	1	2	17	228	3	n/a	controlFoil1
74.0239	3.5	genericItem	n/a	n/a	10218	1	2	18	229	3	n/a	n/a
78.0902	3.5	criticalItem	n/a	n/a	10219	1	2	19	230	3	n/a	criticalFalse
82.0239	3.5	genericItem	n/a	n/a	10220	1	2	20	231	3	n/a	n/a
86.025	3.5	genericItem	n/a	n/a	10221	1	2	21	232	3	n/a	n/a
90.0242	3.5	controlItem	n/a	n/a	10222	1	2	22	233	3	n/a	controlTrue
94.0249	3.5	criticalItem	n/a	n/a	10223	1	2	23	234	3	n/a	criticalFalse
98.024	3.5	genericItem	n/a	n/a	10224	1	2	24	235	3	n/a	n/a
102.025	3.5	criticalItem	n/a	n/a	10225	1	2	25	236	3	n/a	criticalFalse
106.059	3.5	genericItem	n/a	n/a	10226	1	2	26	237	3	n/a	n/a
110.119	3.5	genericItem	n/a	n/a	10227	1	2	27	238	3	n/a	n/a
114.024	3.5	criticalItem	n/a	n/a	10228	1	2	28	239	3	n/a	criticalTrue
118.041	3.5	genericItem	n/a	n/a	10229	1	2	29	240	3	n/a	n/a
122.025	3.5	controlItem	n/a	n/a	10230	1	2	30	241	3	n/a	controlTrue
126.082	3.5	criticalItem	n/a	n/a	10231	1	2	31	242	3	n/a	criticalTrue
130.024	3.5	controlItem	n/a	n/a	10232	1	2	32	243	3	n/a	controlFoil1
134.024	3.5	genericItem	n/a	n/a	10233	1	2	33	244	3	n/a	n/a
138.025	3.5	criticalItem	n/a	n/a	10234	1	2	34	245	3	n/a	criticalFalse
142.023	3.5	controlItem	n/a	n/a	10235	1	2	35	246	3	n/a	controlTrue
146.083	3.5	criticalItem	n/a	n/a	10236	1	2	36	247	3	n/a	criticalFoil
150.038	3.5	controlItem	n/a	n/a	10237	1	2	37	248	3	n/a	controlFoil2
154.025	3.5	criticalItem	n/a	n/a	10238	1	2	38	249	3	n/a	criticalFalse
158.089	3.5	genericItem	n/a	n/a	10239	1	2	39	250	3	n/a	n/a
162.024	3.5	genericItem	1	0.468	10240	1	2	40	251	3	1	n/a
166.023	3.5	criticalItem	n/a	n/a	10241	1	2	41	252	3	n/a	criticalTrue
170.025	3.5	controlItem	n/a	n/a	10242	1	2	42	253	3	n/a	controlFoil2
174.024	3.5	genericItem	n/a	n/a	10243	1	2	43	254	3	n/a	n/a
178.024	3.5	genericItem	1	0.501	10244	1	2	44	255	3	1	n/a
182.024	3.5	criticalItem	n/a	n/a	10245	1	2	45	256	3	n/a	criticalFalse
186.024	3.5	controlItem	n/a	n/a	10246	1	2	46	257	3	n/a	controlTrue
190.024	3.5	genericItem	n/a	n/a	10247	1	2	47	258	3	n/a	n/a
194.024	3.5	controlItem	n/a	n/a	10248	1	2	48	259	3	n/a	controlFoil1
198.025	3.5	criticalItem	n/a	n/a	10249	1	2	49	260	3	n/a	criticalTrue
202.024	3.5	genericItem	n/a	n/a	10250	1	2	50	261	3	n/a	n/a
206.078	n/a	n/a	n/a	n/a	90200	9	2	0	262	3	n/a	n/a
210.023	n/a	n/a	n/a	n/a	81000	8	10	0	263	3	n/a	n/a
214.064	3.5	genericItem	n/a	n/a	11001	1	10	1	264	3	n/a	n/a
218.025	3.5	genericItem	n/a	n/a	11002	1	10	2	265	3	n/a	n/a
222.098	3.5	criticalItem	n/a	n/a	21003	2	10	3	266	3	n/a	criticalFalse
226.119	3.5	genericItem	n/a	n/a	11004	1	10	4	267	3	n/a	n/a
230.024	3.5	criticalItem	n/a	n/a	21005	2	10	5	268	3	n/a	criticalFalse
234.079	3.5	genericItem	n/a	n/a	11006	1	10	6	269	3	n/a	n/a
238.024	3.5	genericItem	n/a	n/a	11007	1	10	7	270	3	n/a	n/a
242.024	3.5	criticalItem	n/a	n/a	21008	2	10	8	271	3	n/a	criticalTrue
246.336	3.5	genericItem	n/a	n/a	11009	1	10	9	272	3	n/a	n/a
250.33	3.5	criticalItem	n/a	n/a	21010	2	10	10	273	3	n/a	criticalTrue
254.084	3.5	genericItem	n/a	n/a	11011	1	10	11	274	3	n/a	n/a
258.041	3.5	genericItem	n/a	n/a	11012	1	10	12	275	3	n/a	n/a
262.368	3.5	genericItem	n/a	n/a	11013	1	10	13	276	3	n/a	n/a
266.328	3.5	genericItem	n/a	n/a	11014	1	10	14	277	3	n/a	n/a
270.34	3.5	criticalItem	n/a	n/a	21015	2	10	15	278	3	n/a	criticalTrue
274.328	3.5	genericItem	n/a	n/a	11016	1	10	16	279	3	n/a	n/a
278.039	3.5	controlItem	n/a	n/a	11017	1	10	17	280	3	n/a	controlTrue
282.024	3.5	criticalItem	n/a	n/a	21018	2	10	18	281	3	n/a	criticalTrue
286.34	3.5	controlItem	n/a	n/a	11019	1	10	19	282	3	n/a	controlTrue
290.321	3.5	criticalItem	n/a	n/a	21020	2	10	20	283	3	n/a	criticalFalse
294.322	3.5	controlItem	n/a	n/a	11021	1	10	21	284	3	n/a	controlFoil2
298.117	3.5	genericItem	n/a	n/a	11022	1	10	22	285	3	n/a	n/a
302.078	3.5	criticalItem	n/a	n/a	21023	2	10	23	286	3	n/a	criticalTrue
306.339	3.5	genericItem	n/a	n/a	11024	1	10	24	287	3	n/a	n/a
310.328	3.5	genericItem	n/a	n/a	11025	1	10	25	288	3	n/a	n/a
314.197	3.5	criticalItem	n/a	n/a	21026	2	10	26	289	3	n/a	criticalTrue
318.319	3.5	genericItem	n/a	n/a	11027	1	10	27	290	3	n/a	n/a
322.313	3.5	controlItem	n/a	n/a	11028	1	10	28	291	3	n/a	controlTrue
326.33	3.5	controlItem	n/a	n/a	11029	1	10	29	292	3	n/a	controlTrue
330.023	3.5	genericItem	n/a	n/a	11030	1	10	30	293	3	n/a	n/a
334.024	3.5	controlItem	n/a	n/a	11031	1	10	31	294	3	n/a	controlFoil2
338.077	3.5	genericItem	n/a	n/a	11032	1	10	32	295	3	n/a	n/a
342.325	3.5	criticalItem	n/a	n/a	21033	2	10	33	296	3	n/a	criticalFoil
346.328	3.5	genericItem	n/a	n/a	11034	1	10	34	297	3	n/a	n/a
350.321	3.5	criticalItem	n/a	n/a	21035	2	10	35	298	3	n/a	criticalFalse
354.341	3.5	genericItem	n/a	n/a	11036	1	10	36	299	3	n/a	n/a
358.3	3.5	controlItem	n/a	n/a	11037	1	10	37	300	3	n/a	controlTrue
362.035	3.5	controlItem	n/a	n/a	11038	1	10	38	301	3	n/a	controlFoil2
366.052	3.5	controlItem	n/a	n/a	11039	1	10	39	302	3	n/a	controlTrue
370.33	3.5	controlItem	n/a	n/a	11040	1	10	40	303	3	n/a	controlTrue
374.319	3.5	genericItem	n/a	n/a	11041	1	10	41	304	3	n/a	n/a
378.071	3.5	genericItem	1	0.408	11042	1	10	42	305	3	1	n/a
382.062	3.5	genericItem	1	0.266	11043	1	10	43	306	3	1	n/a
386.1	3.5	genericItem	n/a	n/a	11044	1	10	44	307	3	n/a	n/a
390.06	3.5	criticalItem	n/a	n/a	21045	2	10	45	308	3	n/a	criticalFoil
394.08	3.5	controlItem	n/a	n/a	11046	1	10	46	309	3	n/a	controlTrue
398.36	3.5	genericItem	n/a	n/a	11047	1	10	47	310	3	n/a	n/a
402.038	3.5	genericItem	n/a	n/a	11048	1	10	48	311	3	n/a	n/a
406.329	3.5	controlItem	n/a	n/a	11049	1	10	49	312	3	n/a	controlTrue
410.104	3.5	genericItem	n/a	n/a	11050	1	10	50	313	3	n/a	n/a
414.119	n/a	n/a	n/a	n/a	91000	9	10	0	314	3	n/a	n/a
418.023	n/a	n/a	n/a	n/a	90000	5	0	0	315	3	n/a	n/a
