onset	duration	trial_type	response	response_time	stim_id	stim_version	stim_events	stim_slides	trial_id	run_id	stim_redcross	subsequent_response_type
2.0331	n/a	n/a	n/a	n/a	80300	8	3	0	316	4	n/a	n/a
6.0241	3.5	genericItem	n/a	n/a	10301	1	3	1	317	4	n/a	n/a
10.0235	3.5	genericItem	n/a	n/a	10302	1	3	2	318	4	n/a	n/a
14.0239	3.5	controlItem	n/a	n/a	10303	1	3	3	319	4	n/a	controlFoil2
18.0237	3.5	genericItem	n/a	n/a	10304	1	3	4	320	4	n/a	n/a
22.0233	3.5	criticalItem	n/a	n/a	10305	1	3	5	321	4	n/a	criticalFalse
26.0236	3.5	genericItem	n/a	n/a	10306	1	3	6	322	4	n/a	n/a
30.0234	3.5	genericItem	n/a	n/a	10307	1	3	7	323	4	n/a	n/a
34.0242	3.5	genericItem	n/a	n/a	10308	1	3	8	324	4	n/a	n/a
38.0245	3.5	controlItem	n/a	n/a	10309	1	3	9	325	4	n/a	controlTrue
42.0234	3.5	genericItem	n/a	n/a	10310	1	3	10	326	4	n/a	n/a
46.0225	3.5	genericItem	n/a	n/a	10311	1	3	11	327	4	n/a	n/a
50.0232	3.5	genericItem	n/a	n/a	10312	1	3	12	328	4	n/a	n/a
54.0237	3.5	controlItem	n/a	n/a	10313	1	3	13	329	4	n/a	controlTrue
58.0242	3.5	genericItem	n/a	n/a	10314	1	3	14	330	4	n/a	n/a
62.0236	3.5	genericItem	n/a	n/a	10315	1	3	15	331	4	n/a	n/a
66.0243	3.5	criticalItem	n/a	n/a	10316	1	3	16	332	4	n/a	criticalTrue
70.0235	3.5	controlItem	n/a	n/a	10317	1	3	17	333	4	n/a	controlTrue
74.0239	3.5	genericItem	n/a	n/a	10318	1	3	18	334	4	n/a	n/a
78.024	3.5	criticalItem	n/a	n/a	10319	1	3	19	335	4	n/a	criticalFalse
82.0241	3.5	controlItem	n/a	n/a	10320	1	3	20	336	4	n/a	controlFoil2
86.0233	3.5	genericItem	n/a	n/a	10321	1	3	21	337	4	n/a	n/a
90.0241	3.5	criticalItem	n/a	n/a	10322	1	3	22	338	4	n/a	criticalTrue
94.0238	3.5	genericItem	n/a	n/a	10323	1	3	23	339	4	n/a	n/a
98.0232	3.5	criticalItem	n/a	n/a	10324	1	3	24	340	4	n/a	criticalTrue
102.023	3.5	controlItem	n/a	n/a	10325	1	3	25	341	4	n/a	controlTrue
106.024	3.5	genericItem	n/a	n/a	10326	1	3	26	342	4	n/a	n/a
110.024	3.5	criticalItem	n/a	n/a	10327	1	3	27	343	4	n/a	criticalTrue
114.023	3.5	genericItem	n/a	n/a	10328	1	3	28	344	4	n/a	n/a
118.024	3.5	controlItem	n/a	n/a	10329	1	3	29	345	4	n/a	controlFoil1
122.024	3.5	criticalItem	n/a	n/a	10330	1	3	30	346	4	n/a	criticalFoil
126.024	3.5	controlItem	n/a	n/a	10331	1	3	31	347	4	n/a	controlTrue
130.025	3.5	criticalItem	n/a	n/a	10332	1	3	32	348	4	n/a	criticalTrue
134.024	3.5	genericItem	n/a	n/a	10333	1	3	33	349	4	n/a	n/a
138.024	3.5	genericItem	n/a	n/a	10334	1	3	34	350	4	n/a	n/a
142.024	3.5	genericItem	1	0.595	10335	1	3	35	351	4	1	n/a
146.023	3.5	criticalItem	n/a	n/a	10336	1	3	36	352	4	n/a	criticalFoil
150.024	3.5	genericItem	n/a	n/a	10337	1	3	37	353	4	n/a	n/a
154.024	3.5	genericItem	n/a	n/a	10338	1	3	38	354	4	n/a	n/a
158.024	3.5	genericItem	n/a	n/a	10339	1	3	39	355	4	n/a	n/a
162.024	3.5	genericItem	n/a	n/a	10340	1	3	40	356	4	n/a	n/a
166.025	3.5	criticalItem	n/a	n/a	10341	1	3	41	357	4	n/a	criticalTrue
170.026	3.5	controlItem	n/a	n/a	10342	1	3	42	358	4	n/a	controlFoil1
174.024	3.5	genericItem	1	0.438	10343	1	3	43	359	4	1	n/a
178.023	3.5	criticalItem	n/a	n/a	10344	1	3	44	360	4	n/a	criticalTrue
182.024	3.5	controlItem	n/a	n/a	10345	1	3	45	361	4	n/a	controlTrue
186.023	3.5	genericItem	n/a	n/a	10346	1	3	46	362	4	n/a	n/a
190.024	3.5	criticalItem	n/a	n/a	10347	1	3	47	363	4	n/a	criticalFalse
194.024	3.5	controlItem	n/a	n/a	10348	1	3	48	364	4	n/a	controlTrue
198.024	3.5	genericItem	n/a	n/a	10349	1	3	49	365	4	n/a	n/a
202.025	3.5	controlItem	n/a	n/a	10350	1	3	50	366	4	n/a	controlTrue
206.024	n/a	n/a	n/a	n/a	90300	9	3	0	367	4	n/a	n/a
210.024	n/a	n/a	n/a	n/a	80700	8	7	0	368	4	n/a	n/a
214.024	3.5	genericItem	n/a	n/a	10701	1	7	1	369	4	n/a	n/a
218.025	3.5	genericItem	n/a	n/a	10702	1	7	2	370	4	n/a	n/a
222.024	3.5	controlItem	n/a	n/a	10703	1	7	3	371	4	n/a	controlFoil1
226.074	3.5	criticalItem	n/a	n/a	10704	1	7	4	372	4	n/a	criticalFalse
230.024	3.5	controlItem	n/a	n/a	10705	1	7	5	373	4	n/a	controlTrue
234.023	3.5	genericItem	n/a	n/a	10706	1	7	6	374	4	n/a	n/a
238.024	3.5	controlItem	n/a	n/a	10707	1	7	7	375	4	n/a	controlTrue
242.024	3.5	controlItem	n/a	n/a	10708	1	7	8	376	4	n/a	controlTrue
246.063	3.5	criticalItem	n/a	n/a	10709	1	7	9	377	4	n/a	criticalFalse
250.024	3.5	genericItem	n/a	n/a	10710	1	7	10	378	4	n/a	n/a
254.023	3.5	controlItem	n/a	n/a	10711	1	7	11	379	4	n/a	controlTrue
258.332	3.5	criticalItem	n/a	n/a	10712	1	7	12	380	4	n/a	criticalFalse
262.023	3.5	genericItem	n/a	n/a	10713	1	7	13	381	4	n/a	n/a
266.022	3.5	controlItem	n/a	n/a	10714	1	7	14	382	4	n/a	controlTrue
270.024	3.5	genericItem	n/a	n/a	10715	1	7	15	383	4	n/a	n/a
274.023	3.5	genericItem	n/a	n/a	10716	1	7	16	384	4	n/a	n/a
278.023	3.5	genericItem	n/a	n/a	10717	1	7	17	385	4	n/a	n/a
282.023	3.5	controlItem	n/a	n/a	10718	1	7	18	386	4	n/a	controlTrue
286.072	3.5	criticalItem	n/a	n/a	10719	1	7	19	387	4	n/a	criticalFalse
290.023	3.5	controlItem	n/a	n/a	10720	1	7	20	388	4	n/a	controlTrue
294.06	3.5	criticalItem	n/a	n/a	10721	1	7	21	389	4	n/a	criticalFalse
298.024	3.5	genericItem	n/a	n/a	10722	1	7	22	390	4	n/a	n/a
302.024	3.5	genericItem	n/a	n/a	10723	1	7	23	391	4	n/a	n/a
306.024	3.5	genericItem	n/a	n/a	10724	1	7	24	392	4	n/a	n/a
310.023	3.5	genericItem	n/a	n/a	10725	1	7	25	393	4	n/a	n/a
314.077	3.5	criticalItem	n/a	n/a	10726	1	7	26	394	4	n/a	criticalTrue
318.023	3.5	genericItem	n/a	n/a	10727	1	7	27	395	4	n/a	n/a
322.024	3.5	controlItem	n/a	n/a	10728	1	7	28	396	4	n/a	controlTrue
326.043	3.5	criticalItem	n/a	n/a	10729	1	7	29	397	4	n/a	criticalTrue
330.025	3.5	genericItem	1	0.486	10730	1	7	30	398	4	1	n/a
334.023	3.5	genericItem	n/a	n/a	10731	1	7	31	399	4	n/a	n/a
338.024	3.5	genericItem	n/a	n/a	10732	1	7	32	400	4	n/a	n/a
342.024	3.5	genericItem	n/a	n/a	10733	1	7	33	401	4	n/a	n/a
346.033	3.5	controlItem	n/a	n/a	10734	1	7	34	402	4	n/a	controlFoil1
350.082	3.5	criticalItem	n/a	n/a	10735	1	7	35	403	4	n/a	criticalTrue
354.024	3.5	genericItem	n/a	n/a	10736	1	7	36	404	4	n/a	n/a
358.023	3.5	genericItem	n/a	n/a	10737	1	7	37	405	4	n/a	n/a
362.024	3.5	genericItem	1	0.354	10738	1	7	38	406	4	1	n/a
366.072	3.5	criticalItem	n/a	n/a	10739	1	7	39	407	4	n/a	criticalFalse
370.025	3.5	controlItem	n/a	n/a	10740	1	7	40	408	4	n/a	controlFoil1
374.024	3.5	genericItem	n/a	n/a	10741	1	7	41	409	4	n/a	n/a
378.024	3.5	genericItem	n/a	n/a	10742	1	7	42	410	4	n/a	n/a
382.024	3.5	genericItem	n/a	n/a	10743	1	7	43	411	4	n/a	n/a
386.041	3.5	criticalItem	n/a	n/a	10744	1	7	44	412	4	n/a	criticalFoil
390.023	3.5	genericItem	n/a	n/a	10745	1	7	45	413	4	n/a	n/a
394.085	3.5	criticalItem	n/a	n/a	10746	1	7	46	414	4	n/a	criticalFalse
398.023	3.5	genericItem	1	0.444	10747	1	7	47	415	4	1	n/a
402.023	3.5	genericItem	n/a	n/a	10748	1	7	48	416	4	n/a	n/a
406.023	3.5	criticalItem	n/a	n/a	10749	1	7	49	417	4	n/a	criticalTrue
410.024	3.5	controlItem	n/a	n/a	10750	1	7	50	418	4	n/a	controlTrue
414.023	n/a	n/a	n/a	n/a	90700	9	7	0	419	4	n/a	n/a
418.024	n/a	n/a	n/a	n/a	90000	5	0	0	420	4	n/a	n/a
