onset	duration	trial_type	response	response_time	stim_id	stim_version	stim_events	stim_slides	trial_id	run_id	stim_redcross	subsequent_response_type
2.0297	n/a	n/a	n/a	n/a	80100	8	1	0	1	1	n/a	n/a
6.0242	3.5	genericItem	n/a	n/a	10101	1	1	1	2	1	n/a	n/a
10.0235	3.5	genericItem	n/a	n/a	10102	1	1	2	3	1	n/a	n/a
14.0243	3.5	genericItem	n/a	n/a	10103	1	1	3	4	1	n/a	n/a
18.0243	3.5	controlItem	n/a	n/a	10104	1	1	4	5	1	n/a	controlFoil1
22.0246	3.5	genericItem	n/a	n/a	10105	1	1	5	6	1	n/a	n/a
26.0237	3.5	genericItem	n/a	n/a	10106	1	1	6	7	1	n/a	n/a
30.0238	3.5	controlItem	n/a	n/a	10107	1	1	7	8	1	n/a	controlTrue
34.0233	3.5	genericItem	n/a	n/a	10108	1	1	8	9	1	n/a	n/a
38.0241	3.5	genericItem	1	0.183	10109	1	1	9	10	1	1	n/a
42.1009	3.5	criticalItem	n/a	n/a	20110	2	1	10	11	1	n/a	criticalFalse
46.0235	3.5	genericItem	n/a	n/a	10111	1	1	11	12	1	n/a	n/a
50.0484	3.5	criticalItem	n/a	n/a	20112	2	1	12	13	1	n/a	criticalTrue
54.0235	3.5	genericItem	n/a	n/a	10113	1	1	13	14	1	n/a	n/a
58.0243	3.5	criticalItem	n/a	n/a	20114	2	1	14	15	1	n/a	criticalFalse
62.0235	3.5	genericItem	n/a	n/a	10115	1	1	15	16	1	n/a	n/a
66.0234	3.5	controlItem	n/a	n/a	10116	1	1	16	17	1	n/a	controlTrue
70.0584	3.5	criticalItem	n/a	n/a	20117	2	1	17	18	1	n/a	criticalTrue
74.0229	3.5	controlItem	n/a	n/a	10118	1	1	18	19	1	n/a	controlTrue
78.0241	3.5	criticalItem	n/a	n/a	20119	2	1	19	20	1	n/a	criticalFalse
82.0244	3.5	genericItem	n/a	n/a	10120	1	1	20	21	1	n/a	n/a
86.0232	3.5	controlItem	n/a	n/a	10121	1	1	21	22	1	n/a	controlFoil2
90.0245	3.5	criticalItem	n/a	n/a	20122	2	1	22	23	1	n/a	criticalFalse
94.0237	3.5	controlItem	n/a	n/a	10123	1	1	23	24	1	n/a	controlTrue
98.0232	3.5	controlItem	n/a	n/a	10124	1	1	24	25	1	n/a	controlTrue
102.024	3.5	controlItem	n/a	n/a	10125	1	1	25	26	1	n/a	controlTrue
106.057	3.5	criticalItem	n/a	n/a	20126	2	1	26	27	1	n/a	criticalTrue
110.024	3.5	genericItem	n/a	n/a	10127	1	1	27	28	1	n/a	n/a
114.024	3.5	criticalItem	n/a	n/a	20128	2	1	28	29	1	n/a	criticalTrue
118.024	3.5	genericItem	n/a	n/a	10129	1	1	29	30	1	n/a	n/a
122.023	3.5	genericItem	n/a	n/a	10130	1	1	30	31	1	n/a	n/a
126.106	3.5	criticalItem	n/a	n/a	20131	2	1	31	32	1	n/a	criticalFalse
130.025	3.5	controlItem	n/a	n/a	10132	1	1	32	33	1	n/a	controlFoil1
134.024	3.5	genericItem	n/a	n/a	10133	1	1	33	34	1	n/a	n/a
138.024	3.5	genericItem	1	0.128	10134	1	1	34	35	1	1	n/a
142.025	3.5	genericItem	n/a	n/a	10135	1	1	35	36	1	n/a	n/a
146.052	3.5	criticalItem	n/a	n/a	20136	2	1	36	37	1	n/a	criticalTrue
150.024	3.5	genericItem	1	0.128	10137	1	1	37	38	1	1	n/a
154.025	3.5	genericItem	n/a	n/a	10138	1	1	38	39	1	n/a	n/a
158.024	3.5	genericItem	n/a	n/a	10139	1	1	39	40	1	n/a	n/a
162.024	3.5	controlItem	n/a	n/a	10140	1	1	40	41	1	n/a	controlTrue
166.058	3.5	criticalItem	n/a	n/a	20141	2	1	41	42	1	n/a	criticalTrue
170.024	3.5	genericItem	n/a	n/a	10142	1	1	42	43	1	n/a	n/a
174.024	3.5	genericItem	n/a	n/a	10143	1	1	43	44	1	n/a	n/a
178.023	3.5	genericItem	n/a	n/a	10144	1	1	44	45	1	n/a	n/a
182.024	3.5	genericItem	n/a	n/a	10145	1	1	45	46	1	n/a	n/a
186.023	3.5	controlItem	n/a	n/a	10146	1	1	46	47	1	n/a	controlTrue
190.024	3.5	genericItem	n/a	n/a	10147	1	1	47	48	1	n/a	n/a
194.023	3.5	genericItem	n/a	n/a	10148	1	1	48	49	1	n/a	n/a
198.024	3.5	controlItem	n/a	n/a	10149	1	1	49	50	1	n/a	controlFoil1
202.025	3.5	criticalItem	n/a	n/a	20150	2	1	50	51	1	n/a	criticalTrue
206.023	n/a	n/a	n/a	n/a	90100	9	1	0	52	1	n/a	n/a
210.024	n/a	n/a	n/a	n/a	80700	8	7	0	53	1	n/a	n/a
214.023	3.5	genericItem	n/a	n/a	10701	1	7	1	54	1	n/a	n/a
218.024	3.5	genericItem	n/a	n/a	10702	1	7	2	55	1	n/a	n/a
222.03	3.5	controlItem	n/a	n/a	10703	1	7	3	56	1	n/a	controlFoil1
226.024	3.5	criticalItem	n/a	n/a	10704	1	7	4	57	1	n/a	criticalTrue
230.025	3.5	controlItem	n/a	n/a	10705	1	7	5	58	1	n/a	controlTrue
234.023	3.5	genericItem	n/a	n/a	10706	1	7	6	59	1	n/a	n/a
238.024	3.5	controlItem	n/a	n/a	10707	1	7	7	60	1	n/a	controlFoil2
242.024	3.5	controlItem	n/a	n/a	10708	1	7	8	61	1	n/a	controlFoil1
246.024	3.5	criticalItem	n/a	n/a	10709	1	7	9	62	1	n/a	criticalFoil
250.023	3.5	genericItem	n/a	n/a	10710	1	7	10	63	1	n/a	n/a
254.024	3.5	controlItem	n/a	n/a	10711	1	7	11	64	1	n/a	controlTrue
258.023	3.5	criticalItem	n/a	n/a	10712	1	7	12	65	1	n/a	criticalTrue
262.023	3.5	genericItem	1	0.175	10713	1	7	13	66	1	1	n/a
266.024	3.5	controlItem	n/a	n/a	10714	1	7	14	67	1	n/a	controlFoil2
270.024	3.5	genericItem	n/a	n/a	10715	1	7	15	68	1	n/a	n/a
274.023	3.5	genericItem	n/a	n/a	10716	1	7	16	69	1	n/a	n/a
278.024	3.5	genericItem	n/a	n/a	10717	1	7	17	70	1	n/a	n/a
282.023	3.5	controlItem	n/a	n/a	10718	1	7	18	71	1	n/a	controlTrue
286.023	3.5	criticalItem	n/a	n/a	10719	1	7	19	72	1	n/a	criticalFalse
290.023	3.5	controlItem	n/a	n/a	10720	1	7	20	73	1	n/a	controlFoil1
294.023	3.5	criticalItem	n/a	n/a	10721	1	7	21	74	1	n/a	criticalFalse
298.023	3.5	genericItem	1	0.272	10722	1	7	22	75	1	1	n/a
302.024	3.5	genericItem	n/a	n/a	10723	1	7	23	76	1	n/a	n/a
306.024	3.5	genericItem	n/a	n/a	10724	1	7	24	77	1	n/a	n/a
310.024	3.5	genericItem	n/a	n/a	10725	1	7	25	78	1	n/a	n/a
314.023	3.5	criticalItem	n/a	n/a	10726	1	7	26	79	1	n/a	criticalFalse
318.024	3.5	genericItem	n/a	n/a	10727	1	7	27	80	1	n/a	n/a
322.024	3.5	controlItem	n/a	n/a	10728	1	7	28	81	1	n/a	controlFoil1
326.024	3.5	criticalItem	n/a	n/a	10729	1	7	29	82	1	n/a	criticalTrue
330.024	3.5	genericItem	1	0.17	10730	1	7	30	83	1	1	n/a
334.023	3.5	genericItem	n/a	n/a	10731	1	7	31	84	1	n/a	n/a
338.024	3.5	genericItem	n/a	n/a	10732	1	7	32	85	1	n/a	n/a
342.024	3.5	genericItem	n/a	n/a	10733	1	7	33	86	1	n/a	n/a
346.023	3.5	controlItem	n/a	n/a	10734	1	7	34	87	1	n/a	controlFoil1
350.025	3.5	criticalItem	n/a	n/a	10735	1	7	35	88	1	n/a	criticalFoil
354.023	3.5	genericItem	n/a	n/a	10736	1	7	36	89	1	n/a	n/a
358.024	3.5	genericItem	n/a	n/a	10737	1	7	37	90	1	n/a	n/a
362.023	3.5	genericItem	n/a	n/a	10738	1	7	38	91	1	n/a	n/a
366.025	3.5	criticalItem	n/a	n/a	10739	1	7	39	92	1	n/a	criticalFalse
370.023	3.5	controlItem	n/a	n/a	10740	1	7	40	93	1	n/a	controlFoil1
374.024	3.5	genericItem	n/a	n/a	10741	1	7	41	94	1	n/a	n/a
378.023	3.5	genericItem	n/a	n/a	10742	1	7	42	95	1	n/a	n/a
382.024	3.5	genericItem	n/a	n/a	10743	1	7	43	96	1	n/a	n/a
386.024	3.5	criticalItem	n/a	n/a	10744	1	7	44	97	1	n/a	criticalTrue
390.024	3.5	genericItem	n/a	n/a	10745	1	7	45	98	1	n/a	n/a
394.023	3.5	criticalItem	n/a	n/a	10746	1	7	46	99	1	n/a	criticalFalse
398.023	3.5	genericItem	1	0.271	10747	1	7	47	100	1	1	n/a
402.024	3.5	genericItem	n/a	n/a	10748	1	7	48	101	1	n/a	n/a
406.023	3.5	criticalItem	n/a	n/a	10749	1	7	49	102	1	n/a	criticalFoil
410.024	3.5	controlItem	n/a	n/a	10750	1	7	50	103	1	n/a	controlFoil1
414.024	n/a	n/a	n/a	n/a	90700	9	7	0	104	1	n/a	n/a
418.024	n/a	n/a	n/a	n/a	90000	5	0	0	105	1	n/a	n/a
