onset	duration	trial_type	response	response_time	stim_id	stim_version	stim_events	stim_slides	trial_id	run_id	stim_redcross	subsequent_response_type
2.0357	n/a	n/a	n/a	n/a	80700	8	7	0	316	4	n/a	n/a
6.024	3.5	genericItem	n/a	n/a	10701	1	7	1	317	4	n/a	n/a
10.0248	3.5	genericItem	n/a	n/a	10702	1	7	2	318	4	n/a	n/a
14.0246	3.5	controlItem	n/a	n/a	10703	1	7	3	319	4	n/a	controlFoil1
18.0285	3.5	criticalItem	n/a	n/a	20704	2	7	4	320	4	n/a	criticalFalse
22.0241	3.5	controlItem	n/a	n/a	10705	1	7	5	321	4	n/a	controlTrue
26.0232	3.5	genericItem	n/a	n/a	10706	1	7	6	322	4	n/a	n/a
30.0248	3.5	controlItem	n/a	n/a	10707	1	7	7	323	4	n/a	controlFoil2
34.0237	3.5	controlItem	n/a	n/a	10708	1	7	8	324	4	n/a	controlFoil1
38.0238	3.5	criticalItem	n/a	n/a	20709	2	7	9	325	4	n/a	criticalFalse
42.0236	3.5	genericItem	n/a	n/a	10710	1	7	10	326	4	1	n/a
46.0228	3.5	controlItem	n/a	n/a	10711	1	7	11	327	4	n/a	controlFoil2
50.0227	3.5	criticalItem	n/a	n/a	20712	2	7	12	328	4	n/a	criticalTrue
54.0234	3.5	genericItem	n/a	n/a	10713	1	7	13	329	4	n/a	n/a
58.0229	3.5	controlItem	n/a	n/a	10714	1	7	14	330	4	n/a	controlTrue
62.0239	3.5	genericItem	n/a	n/a	10715	1	7	15	331	4	n/a	n/a
66.0231	3.5	genericItem	n/a	n/a	10716	1	7	16	332	4	n/a	n/a
70.0232	3.5	genericItem	n/a	n/a	10717	1	7	17	333	4	n/a	n/a
74.0227	3.5	controlItem	n/a	n/a	10718	1	7	18	334	4	n/a	controlFoil2
78.0232	3.5	criticalItem	n/a	n/a	20719	2	7	19	335	4	n/a	criticalFalse
82.0238	3.5	controlItem	n/a	n/a	10720	1	7	20	336	4	n/a	controlTrue
86.0235	3.5	criticalItem	n/a	n/a	20721	2	7	21	337	4	n/a	criticalFoil
90.0228	3.5	genericItem	n/a	n/a	10722	1	7	22	338	4	n/a	n/a
94.0235	3.5	genericItem	n/a	n/a	10723	1	7	23	339	4	n/a	n/a
98.0232	3.5	genericItem	n/a	n/a	10724	1	7	24	340	4	n/a	n/a
102.023	3.5	genericItem	n/a	n/a	10725	1	7	25	341	4	n/a	n/a
106.025	3.5	criticalItem	n/a	n/a	20726	2	7	26	342	4	n/a	criticalTrue
110.023	3.5	genericItem	n/a	n/a	10727	1	7	27	343	4	n/a	n/a
114.023	3.5	controlItem	n/a	n/a	10728	1	7	28	344	4	n/a	controlFoil2
118.024	3.5	criticalItem	n/a	n/a	20729	2	7	29	345	4	n/a	criticalFalse
122.024	3.5	genericItem	n/a	n/a	10730	1	7	30	346	4	n/a	n/a
126.023	3.5	genericItem	n/a	n/a	10731	1	7	31	347	4	n/a	n/a
130.024	3.5	genericItem	n/a	n/a	10732	1	7	32	348	4	n/a	n/a
134.024	3.5	genericItem	n/a	n/a	10733	1	7	33	349	4	n/a	n/a
138.023	3.5	controlItem	n/a	n/a	10734	1	7	34	350	4	n/a	controlFoil1
142.023	3.5	criticalItem	n/a	n/a	20735	2	7	35	351	4	n/a	criticalTrue
146.023	3.5	genericItem	n/a	n/a	10736	1	7	36	352	4	n/a	n/a
150.024	3.5	genericItem	n/a	n/a	10737	1	7	37	353	4	n/a	n/a
154.024	3.5	genericItem	n/a	n/a	10738	1	7	38	354	4	1	n/a
158.023	3.5	criticalItem	n/a	n/a	20739	2	7	39	355	4	n/a	criticalFalse
162.023	3.5	controlItem	n/a	n/a	10740	1	7	40	356	4	n/a	controlTrue
166.024	3.5	genericItem	n/a	n/a	10741	1	7	41	357	4	1	n/a
170.023	3.5	genericItem	n/a	n/a	10742	1	7	42	358	4	n/a	n/a
174.024	3.5	genericItem	n/a	n/a	10743	1	7	43	359	4	n/a	n/a
178.023	3.5	criticalItem	n/a	n/a	20744	2	7	44	360	4	n/a	criticalFalse
182.023	3.5	genericItem	n/a	n/a	10745	1	7	45	361	4	n/a	n/a
186.023	3.5	criticalItem	n/a	n/a	20746	2	7	46	362	4	n/a	criticalTrue
190.024	3.5	genericItem	n/a	n/a	10747	1	7	47	363	4	n/a	n/a
194.024	3.5	genericItem	n/a	n/a	10748	1	7	48	364	4	n/a	n/a
198.024	3.5	criticalItem	n/a	n/a	20749	2	7	49	365	4	n/a	criticalFalse
202.024	3.5	controlItem	n/a	n/a	10750	1	7	50	366	4	n/a	controlTrue
206.023	n/a	n/a	n/a	n/a	90700	9	7	0	367	4	n/a	n/a
210.024	n/a	n/a	n/a	n/a	80400	8	4	0	368	4	n/a	n/a
214.024	3.5	genericItem	n/a	n/a	10401	1	4	1	369	4	1	n/a
218.023	3.5	genericItem	n/a	n/a	10402	1	4	2	370	4	1	n/a
222.024	3.5	genericItem	n/a	n/a	10403	1	4	3	371	4	n/a	n/a
226.023	3.5	criticalItem	n/a	n/a	10404	1	4	4	372	4	n/a	criticalTrue
230.025	3.5	genericItem	n/a	n/a	10405	1	4	5	373	4	n/a	n/a
234.024	3.5	genericItem	n/a	n/a	10406	1	4	6	374	4	n/a	n/a
238.023	3.5	criticalItem	n/a	n/a	10407	1	4	7	375	4	n/a	criticalFoil
242.024	3.5	genericItem	n/a	n/a	10408	1	4	8	376	4	n/a	n/a
246.023	3.5	controlItem	n/a	n/a	10409	1	4	9	377	4	n/a	controlTrue
250.023	3.5	genericItem	n/a	n/a	10410	1	4	10	378	4	n/a	n/a
254.023	3.5	criticalItem	n/a	n/a	10411	1	4	11	379	4	n/a	criticalFalse
258.024	3.5	controlItem	n/a	n/a	10412	1	4	12	380	4	n/a	controlTrue
262.023	3.5	genericItem	n/a	n/a	10413	1	4	13	381	4	n/a	n/a
266.023	3.5	genericItem	n/a	n/a	10414	1	4	14	382	4	n/a	n/a
270.024	3.5	criticalItem	n/a	n/a	10415	1	4	15	383	4	n/a	criticalTrue
274.023	3.5	controlItem	n/a	n/a	10416	1	4	16	384	4	n/a	controlTrue
278.023	3.5	criticalItem	n/a	n/a	10417	1	4	17	385	4	n/a	criticalFalse
282.024	3.5	genericItem	n/a	n/a	10418	1	4	18	386	4	n/a	n/a
286.023	3.5	criticalItem	n/a	n/a	10419	1	4	19	387	4	n/a	criticalFoil
290.022	3.5	genericItem	n/a	n/a	10420	1	4	20	388	4	n/a	n/a
294.023	3.5	genericItem	n/a	n/a	10421	1	4	21	389	4	n/a	n/a
298.023	3.5	controlItem	n/a	n/a	10422	1	4	22	390	4	n/a	controlTrue
302.024	3.5	genericItem	n/a	n/a	10423	1	4	23	391	4	n/a	n/a
306.023	3.5	criticalItem	n/a	n/a	10424	1	4	24	392	4	n/a	criticalFoil
310.023	3.5	controlItem	n/a	n/a	10425	1	4	25	393	4	n/a	controlFoil2
314.023	3.5	genericItem	n/a	n/a	10426	1	4	26	394	4	n/a	n/a
318.023	3.5	genericItem	n/a	n/a	10427	1	4	27	395	4	n/a	n/a
322.025	3.5	genericItem	n/a	n/a	10428	1	4	28	396	4	n/a	n/a
326.022	3.5	criticalItem	n/a	n/a	10429	1	4	29	397	4	n/a	criticalTrue
330.023	3.5	controlItem	n/a	n/a	10430	1	4	30	398	4	n/a	controlFoil1
334.024	3.5	genericItem	n/a	n/a	10431	1	4	31	399	4	n/a	n/a
338.024	3.5	genericItem	n/a	n/a	10432	1	4	32	400	4	n/a	n/a
342.023	3.5	genericItem	n/a	n/a	10433	1	4	33	401	4	1	n/a
346.024	3.5	genericItem	n/a	n/a	10434	1	4	34	402	4	1	n/a
350.024	3.5	genericItem	n/a	n/a	10435	1	4	35	403	4	n/a	n/a
354.024	3.5	criticalItem	n/a	n/a	10436	1	4	36	404	4	n/a	criticalFalse
358.023	3.5	genericItem	n/a	n/a	10437	1	4	37	405	4	n/a	n/a
362.024	3.5	criticalItem	n/a	n/a	10438	1	4	38	406	4	n/a	criticalFoil
366.024	3.5	genericItem	n/a	n/a	10439	1	4	39	407	4	n/a	n/a
370.023	3.5	criticalItem	n/a	n/a	10440	1	4	40	408	4	n/a	criticalTrue
374.025	3.5	genericItem	n/a	n/a	10441	1	4	41	409	4	n/a	n/a
378.024	3.5	controlItem	n/a	n/a	10442	1	4	42	410	4	n/a	controlTrue
382.024	3.5	controlItem	n/a	n/a	10443	1	4	43	411	4	n/a	controlFoil1
386.024	3.5	controlItem	n/a	n/a	10444	1	4	44	412	4	n/a	controlFoil2
390.023	3.5	genericItem	n/a	n/a	10445	1	4	45	413	4	n/a	n/a
394.023	3.5	controlItem	n/a	n/a	10446	1	4	46	414	4	n/a	controlTrue
398.024	3.5	genericItem	n/a	n/a	10447	1	4	47	415	4	n/a	n/a
402.023	3.5	controlItem	n/a	n/a	10448	1	4	48	416	4	n/a	controlFoil1
406.023	3.5	criticalItem	n/a	n/a	10449	1	4	49	417	4	n/a	criticalFalse
410.024	3.5	controlItem	n/a	n/a	10450	1	4	50	418	4	n/a	controlTrue
414.023	n/a	n/a	n/a	n/a	90400	9	4	0	419	4	n/a	n/a
418.024	n/a	n/a	n/a	n/a	90000	5	0	0	420	4	n/a	n/a
