onset	duration	trial_type	response	response_time	stim_id	stim_version	stim_events	stim_slides	trial_id	run_id	stim_redcross	subsequent_response_type
2.0317	n/a	n/a	n/a	n/a	80900	8	9	0	106	2	n/a	n/a
6.0247	3.5	genericItem	1	0.783	10901	1	9	1	107	2	1	n/a
10.0235	3.5	genericItem	1	1.25	10902	1	9	2	108	2	1	n/a
14.0244	3.5	controlItem	n/a	n/a	10903	1	9	3	109	2	n/a	controlFoil2
18.0237	3.5	criticalItem	n/a	n/a	20904	2	9	4	110	2	n/a	criticalTrue
22.0239	3.5	controlItem	n/a	n/a	10905	1	9	5	111	2	n/a	controlFoil1
26.0234	3.5	genericItem	n/a	n/a	10906	1	9	6	112	2	n/a	n/a
30.0239	3.5	genericItem	n/a	n/a	10907	1	9	7	113	2	n/a	n/a
34.024	3.5	criticalItem	n/a	n/a	20908	2	9	8	114	2	n/a	criticalTrue
38.0237	3.5	controlItem	n/a	n/a	10909	1	9	9	115	2	n/a	controlTrue
42.0238	3.5	criticalItem	n/a	n/a	20910	2	9	10	116	2	n/a	criticalFalse
46.0241	3.5	controlItem	n/a	n/a	10911	1	9	11	117	2	n/a	controlFoil2
50.0245	3.5	genericItem	n/a	n/a	10912	1	9	12	118	2	n/a	n/a
54.0238	3.5	criticalItem	n/a	n/a	20913	2	9	13	119	2	n/a	criticalTrue
58.0243	3.5	genericItem	n/a	n/a	10914	1	9	14	120	2	n/a	n/a
62.0239	3.5	controlItem	n/a	n/a	10915	1	9	15	121	2	n/a	controlTrue
66.0233	3.5	genericItem	n/a	n/a	10916	1	9	16	122	2	n/a	n/a
70.0233	3.5	controlItem	n/a	n/a	10917	1	9	17	123	2	n/a	controlFoil1
74.0229	3.5	genericItem	n/a	n/a	10918	1	9	18	124	2	n/a	n/a
78.0242	3.5	criticalItem	n/a	n/a	20919	2	9	19	125	2	n/a	criticalFoil
82.0243	3.5	genericItem	n/a	n/a	10920	1	9	20	126	2	n/a	n/a
86.0231	3.5	genericItem	n/a	n/a	10921	1	9	21	127	2	n/a	n/a
90.0245	3.5	criticalItem	n/a	n/a	20922	2	9	22	128	2	n/a	criticalTrue
94.0235	3.5	controlItem	n/a	n/a	10923	1	9	23	129	2	n/a	controlFoil2
98.0235	3.5	criticalItem	n/a	n/a	20924	2	9	24	130	2	n/a	criticalFalse
102.023	3.5	genericItem	n/a	n/a	10925	1	9	25	131	2	n/a	n/a
106.023	3.5	criticalItem	n/a	n/a	20926	2	9	26	132	2	n/a	criticalFalse
110.024	3.5	genericItem	n/a	n/a	10927	1	9	27	133	2	n/a	n/a
114.023	3.5	criticalItem	n/a	n/a	20928	2	9	28	134	2	n/a	criticalFalse
118.024	3.5	genericItem	1	0.697	10929	1	9	29	135	2	1	n/a
122.024	3.5	genericItem	n/a	n/a	10930	1	9	30	136	2	n/a	n/a
126.024	3.5	controlItem	n/a	n/a	10931	1	9	31	137	2	n/a	controlTrue
130.024	3.5	genericItem	n/a	n/a	10932	1	9	32	138	2	n/a	n/a
134.024	3.5	genericItem	n/a	n/a	10933	1	9	33	139	2	n/a	n/a
138.024	3.5	genericItem	n/a	n/a	10934	1	9	34	140	2	n/a	n/a
142.024	3.5	criticalItem	n/a	n/a	20935	2	9	35	141	2	n/a	criticalFoil
146.024	3.5	genericItem	n/a	n/a	10936	1	9	36	142	2	n/a	n/a
150.025	3.5	genericItem	n/a	n/a	10937	1	9	37	143	2	n/a	n/a
154.024	3.5	genericItem	n/a	n/a	10938	1	9	38	144	2	n/a	n/a
158.024	3.5	genericItem	n/a	n/a	10939	1	9	39	145	2	n/a	n/a
162.024	3.5	genericItem	n/a	n/a	10940	1	9	40	146	2	n/a	n/a
166.023	3.5	criticalItem	n/a	n/a	20941	2	9	41	147	2	n/a	criticalTrue
170.024	3.5	genericItem	n/a	n/a	10942	1	9	42	148	2	n/a	n/a
174.025	3.5	controlItem	n/a	n/a	10943	1	9	43	149	2	n/a	controlTrue
178.028	3.5	genericItem	n/a	n/a	10944	1	9	44	150	2	n/a	n/a
182.023	3.5	controlItem	n/a	n/a	10945	1	9	45	151	2	n/a	controlFoil1
186.023	3.5	genericItem	n/a	n/a	10946	1	9	46	152	2	n/a	n/a
190.023	3.5	controlItem	n/a	n/a	10947	1	9	47	153	2	n/a	controlTrue
194.024	3.5	genericItem	n/a	n/a	10948	1	9	48	154	2	n/a	n/a
198.025	3.5	criticalItem	n/a	n/a	20949	2	9	49	155	2	n/a	criticalTrue
202.023	3.5	controlItem	n/a	n/a	10950	1	9	50	156	2	n/a	controlTrue
206.024	n/a	n/a	n/a	n/a	90900	9	9	0	157	2	n/a	n/a
210.024	n/a	n/a	n/a	n/a	81000	8	10	0	158	2	n/a	n/a
214.023	3.5	genericItem	n/a	n/a	11001	1	10	1	159	2	n/a	n/a
218.024	3.5	genericItem	1	0.744	11002	1	10	2	160	2	1	n/a
222.024	3.5	criticalItem	n/a	n/a	21003	2	10	3	161	2	n/a	criticalTrue
226.024	3.5	genericItem	n/a	n/a	11004	1	10	4	162	2	n/a	n/a
230.024	3.5	criticalItem	n/a	n/a	21005	2	10	5	163	2	n/a	criticalTrue
234.024	3.5	genericItem	n/a	n/a	11006	1	10	6	164	2	n/a	n/a
238.024	3.5	genericItem	n/a	n/a	11007	1	10	7	165	2	n/a	n/a
242.023	3.5	criticalItem	n/a	n/a	21008	2	10	8	166	2	n/a	criticalTrue
246.024	3.5	genericItem	n/a	n/a	11009	1	10	9	167	2	n/a	n/a
250.024	3.5	criticalItem	n/a	n/a	21010	2	10	10	168	2	n/a	criticalFalse
254.023	3.5	genericItem	n/a	n/a	11011	1	10	11	169	2	n/a	n/a
258.024	3.5	genericItem	n/a	n/a	11012	1	10	12	170	2	n/a	n/a
262.024	3.5	genericItem	n/a	n/a	11013	1	10	13	171	2	n/a	n/a
266.025	3.5	genericItem	n/a	n/a	11014	1	10	14	172	2	n/a	n/a
270.023	3.5	criticalItem	n/a	n/a	21015	2	10	15	173	2	n/a	criticalTrue
274.024	3.5	genericItem	n/a	n/a	11016	1	10	16	174	2	n/a	n/a
278.024	3.5	controlItem	n/a	n/a	11017	1	10	17	175	2	n/a	controlFoil2
282.024	3.5	criticalItem	n/a	n/a	21018	2	10	18	176	2	n/a	criticalFalse
286.024	3.5	controlItem	n/a	n/a	11019	1	10	19	177	2	n/a	controlTrue
290.024	3.5	criticalItem	n/a	n/a	21020	2	10	20	178	2	n/a	criticalTrue
294.024	3.5	controlItem	n/a	n/a	11021	1	10	21	179	2	n/a	controlTrue
298.024	3.5	genericItem	1	0.609	11022	1	10	22	180	2	1	n/a
302.025	3.5	criticalItem	n/a	n/a	21023	2	10	23	181	2	n/a	criticalTrue
306.024	3.5	genericItem	n/a	n/a	11024	1	10	24	182	2	n/a	n/a
310.024	3.5	genericItem	n/a	n/a	11025	1	10	25	183	2	n/a	n/a
314.023	3.5	criticalItem	n/a	n/a	21026	2	10	26	184	2	n/a	criticalFalse
318.023	3.5	genericItem	n/a	n/a	11027	1	10	27	185	2	n/a	n/a
322.024	3.5	controlItem	n/a	n/a	11028	1	10	28	186	2	n/a	controlTrue
326.024	3.5	controlItem	n/a	n/a	11029	1	10	29	187	2	n/a	controlFoil2
330.023	3.5	genericItem	n/a	n/a	11030	1	10	30	188	2	n/a	n/a
334.023	3.5	controlItem	n/a	n/a	11031	1	10	31	189	2	n/a	controlFoil2
338.023	3.5	genericItem	n/a	n/a	11032	1	10	32	190	2	n/a	n/a
342.024	3.5	criticalItem	n/a	n/a	21033	2	10	33	191	2	n/a	criticalFalse
346.024	3.5	genericItem	n/a	n/a	11034	1	10	34	192	2	n/a	n/a
350.024	3.5	criticalItem	n/a	n/a	21035	2	10	35	193	2	n/a	criticalFoil
354.024	3.5	genericItem	n/a	n/a	11036	1	10	36	194	2	n/a	n/a
358.024	3.5	controlItem	n/a	n/a	11037	1	10	37	195	2	n/a	controlTrue
362.023	3.5	controlItem	n/a	n/a	11038	1	10	38	196	2	n/a	controlFoil2
366.024	3.5	controlItem	n/a	n/a	11039	1	10	39	197	2	n/a	controlTrue
370.024	3.5	controlItem	n/a	n/a	11040	1	10	40	198	2	n/a	controlTrue
374.024	3.5	genericItem	n/a	n/a	11041	1	10	41	199	2	n/a	n/a
378.023	3.5	genericItem	n/a	n/a	11042	1	10	42	200	2	n/a	n/a
382.023	3.5	genericItem	n/a	n/a	11043	1	10	43	201	2	n/a	n/a
386.024	3.5	genericItem	n/a	n/a	11044	1	10	44	202	2	n/a	n/a
390.024	3.5	criticalItem	n/a	n/a	21045	2	10	45	203	2	n/a	criticalFalse
394.024	3.5	controlItem	n/a	n/a	11046	1	10	46	204	2	n/a	controlTrue
398.024	3.5	genericItem	n/a	n/a	11047	1	10	47	205	2	n/a	n/a
402.023	3.5	genericItem	n/a	n/a	11048	1	10	48	206	2	n/a	n/a
406.023	3.5	controlItem	n/a	n/a	11049	1	10	49	207	2	n/a	controlTrue
410.024	3.5	genericItem	n/a	n/a	11050	1	10	50	208	2	n/a	n/a
414.024	n/a	n/a	n/a	n/a	91000	9	10	0	209	2	n/a	n/a
418.023	n/a	n/a	n/a	n/a	90000	5	0	0	210	2	n/a	n/a
