onset	duration	trial_type	response	response_time	stim_id	stim_version	stim_events	stim_slides	trial_id	run_id	stim_redcross	subsequent_response_type
2.0607	n/a	n/a	n/a	n/a	80900	8	9	0	106	2	n/a	n/a
6.1005	3.5	genericItem	1	0.738	10901	1	9	1	107	2	1	n/a
10.0241	3.5	genericItem	n/a	n/a	10902	1	9	2	108	2	n/a	n/a
14.0246	3.5	controlItem	n/a	n/a	10903	1	9	3	109	2	n/a	controlFoil1
18.087	3.5	criticalItem	n/a	n/a	20904	2	9	4	110	2	n/a	criticalTrue
22.0812	3.5	controlItem	n/a	n/a	10905	1	9	5	111	2	n/a	controlFoil2
26.0718	3.5	genericItem	n/a	n/a	10906	1	9	6	112	2	n/a	n/a
30.0288	3.5	genericItem	n/a	n/a	10907	1	9	7	113	2	n/a	n/a
34.0779	3.5	criticalItem	n/a	n/a	20908	2	9	8	114	2	n/a	criticalTrue
38.0464	3.5	controlItem	n/a	n/a	10909	1	9	9	115	2	n/a	controlFoil2
42.0229	3.5	criticalItem	n/a	n/a	20910	2	9	10	116	2	n/a	criticalFalse
46.0844	3.5	controlItem	n/a	n/a	10911	1	9	11	117	2	n/a	controlFoil1
50.0725	3.5	genericItem	n/a	n/a	10912	1	9	12	118	2	n/a	n/a
54.0664	3.5	criticalItem	n/a	n/a	20913	2	9	13	119	2	n/a	criticalFalse
58.089	3.5	genericItem	n/a	n/a	10914	1	9	14	120	2	n/a	n/a
62.078	3.5	controlItem	n/a	n/a	10915	1	9	15	121	2	n/a	controlTrue
66.0234	3.5	genericItem	1	0.989	10916	1	9	16	122	2	1	n/a
70.081	3.5	controlItem	n/a	n/a	10917	1	9	17	123	2	n/a	controlFoil2
74.0717	3.5	genericItem	n/a	n/a	10918	1	9	18	124	2	n/a	n/a
78.023	3.5	criticalItem	n/a	n/a	20919	2	9	19	125	2	n/a	criticalTrue
82.0237	3.5	genericItem	n/a	n/a	10920	1	9	20	126	2	n/a	n/a
86.0897	3.5	genericItem	n/a	n/a	10921	1	9	21	127	2	n/a	n/a
90.0574	3.5	criticalItem	n/a	n/a	20922	2	9	22	128	2	n/a	criticalTrue
94.0833	3.5	controlItem	n/a	n/a	10923	1	9	23	129	2	n/a	controlFoil2
98.0228	3.5	criticalItem	n/a	n/a	20924	2	9	24	130	2	n/a	criticalTrue
102.08	3.5	genericItem	n/a	n/a	10925	1	9	25	131	2	n/a	n/a
106.023	3.5	criticalItem	n/a	n/a	20926	2	9	26	132	2	n/a	criticalFalse
110.075	3.5	genericItem	n/a	n/a	10927	1	9	27	133	2	n/a	n/a
114.026	3.5	criticalItem	n/a	n/a	20928	2	9	28	134	2	n/a	criticalFalse
118.09	3.5	genericItem	n/a	n/a	10929	1	9	29	135	2	n/a	n/a
122.025	3.5	genericItem	n/a	n/a	10930	1	9	30	136	2	n/a	n/a
126.073	3.5	controlItem	n/a	n/a	10931	1	9	31	137	2	n/a	controlFoil1
130.09	3.5	genericItem	n/a	n/a	10932	1	9	32	138	2	n/a	n/a
134.076	3.5	genericItem	n/a	n/a	10933	1	9	33	139	2	n/a	n/a
138.026	3.5	genericItem	n/a	n/a	10934	1	9	34	140	2	n/a	n/a
142.078	3.5	criticalItem	n/a	n/a	20935	2	9	35	141	2	n/a	criticalTrue
146.026	3.5	genericItem	n/a	n/a	10936	1	9	36	142	2	n/a	n/a
150.063	3.5	genericItem	n/a	n/a	10937	1	9	37	143	2	n/a	n/a
154.026	3.5	genericItem	n/a	n/a	10938	1	9	38	144	2	n/a	n/a
158.075	3.5	genericItem	n/a	n/a	10939	1	9	39	145	2	n/a	n/a
162.063	3.5	genericItem	n/a	n/a	10940	1	9	40	146	2	n/a	n/a
166.079	3.5	criticalItem	n/a	n/a	20941	2	9	41	147	2	n/a	criticalFalse
170.103	3.5	genericItem	n/a	n/a	10942	1	9	42	148	2	n/a	n/a
174.062	3.5	controlItem	n/a	n/a	10943	1	9	43	149	2	n/a	controlTrue
178.025	3.5	genericItem	n/a	n/a	10944	1	9	44	150	2	n/a	n/a
182.025	3.5	controlItem	n/a	n/a	10945	1	9	45	151	2	n/a	controlFoil2
186.026	3.5	genericItem	n/a	n/a	10946	1	9	46	152	2	n/a	n/a
190.091	3.5	controlItem	n/a	n/a	10947	1	9	47	153	2	n/a	controlTrue
194.072	3.5	genericItem	n/a	n/a	10948	1	9	48	154	2	n/a	n/a
198.024	3.5	criticalItem	n/a	n/a	20949	2	9	49	155	2	n/a	criticalFalse
202.026	3.5	controlItem	n/a	n/a	10950	1	9	50	156	2	n/a	controlTrue
206.044	n/a	n/a	n/a	n/a	90900	9	9	0	157	2	n/a	n/a
210.086	n/a	n/a	n/a	n/a	80100	8	1	0	158	2	n/a	n/a
214.122	3.5	genericItem	n/a	n/a	10101	1	1	1	159	2	n/a	n/a
218.06	3.5	genericItem	n/a	n/a	10102	1	1	2	160	2	n/a	n/a
222.025	3.5	genericItem	n/a	n/a	10103	1	1	3	161	2	n/a	n/a
226.059	3.5	controlItem	n/a	n/a	10104	1	1	4	162	2	n/a	controlFoil1
230.025	3.5	genericItem	n/a	n/a	10105	1	1	5	163	2	n/a	n/a
234.026	3.5	genericItem	n/a	n/a	10106	1	1	6	164	2	n/a	n/a
238.026	3.5	controlItem	n/a	n/a	10107	1	1	7	165	2	n/a	controlTrue
242.025	3.5	genericItem	1	0.665	10108	1	1	8	166	2	1	n/a
246.084	3.5	genericItem	n/a	n/a	10109	1	1	9	167	2	n/a	n/a
250.098	3.5	criticalItem	n/a	n/a	20110	2	1	10	168	2	n/a	criticalTrue
254.068	3.5	genericItem	n/a	n/a	10111	1	1	11	169	2	n/a	n/a
258.082	3.5	criticalItem	n/a	n/a	20112	2	1	12	170	2	n/a	criticalTrue
262.085	3.5	genericItem	n/a	n/a	10113	1	1	13	171	2	n/a	n/a
266.023	3.5	criticalItem	n/a	n/a	20114	2	1	14	172	2	n/a	criticalFalse
270.024	3.5	genericItem	n/a	n/a	10115	1	1	15	173	2	n/a	n/a
274.024	3.5	controlItem	n/a	n/a	10116	1	1	16	174	2	n/a	controlTrue
278.093	3.5	criticalItem	n/a	n/a	20117	2	1	17	175	2	n/a	criticalTrue
282.087	3.5	controlItem	n/a	n/a	10118	1	1	18	176	2	n/a	controlFoil1
286.081	3.5	criticalItem	n/a	n/a	20119	2	1	19	177	2	n/a	criticalFalse
290.082	3.5	genericItem	n/a	n/a	10120	1	1	20	178	2	n/a	n/a
294.11	3.5	controlItem	n/a	n/a	10121	1	1	21	179	2	n/a	controlFoil1
298.037	3.5	criticalItem	n/a	n/a	20122	2	1	22	180	2	n/a	criticalTrue
302.081	3.5	controlItem	n/a	n/a	10123	1	1	23	181	2	n/a	controlTrue
306.036	3.5	controlItem	n/a	n/a	10124	1	1	24	182	2	n/a	controlFoil2
310.08	3.5	controlItem	n/a	n/a	10125	1	1	25	183	2	n/a	controlFoil2
314.071	3.5	criticalItem	n/a	n/a	20126	2	1	26	184	2	n/a	criticalFoil
318.025	3.5	genericItem	1	0.76	10127	1	1	27	185	2	1	n/a
322.058	3.5	criticalItem	n/a	n/a	20128	2	1	28	186	2	n/a	criticalFalse
326.098	3.5	genericItem	n/a	n/a	10129	1	1	29	187	2	n/a	n/a
330.025	3.5	genericItem	n/a	n/a	10130	1	1	30	188	2	n/a	n/a
334.075	3.5	criticalItem	n/a	n/a	20131	2	1	31	189	2	n/a	criticalFalse
338.024	3.5	controlItem	n/a	n/a	10132	1	1	32	190	2	n/a	controlTrue
342.024	3.5	genericItem	n/a	n/a	10133	1	1	33	191	2	n/a	n/a
346.044	3.5	genericItem	n/a	n/a	10134	1	1	34	192	2	n/a	n/a
350.061	3.5	genericItem	n/a	n/a	10135	1	1	35	193	2	n/a	n/a
354.079	3.5	criticalItem	n/a	n/a	20136	2	1	36	194	2	n/a	criticalFalse
358.082	3.5	genericItem	n/a	n/a	10137	1	1	37	195	2	n/a	n/a
362.024	3.5	genericItem	n/a	n/a	10138	1	1	38	196	2	n/a	n/a
366.024	3.5	genericItem	n/a	n/a	10139	1	1	39	197	2	n/a	n/a
370.024	3.5	controlItem	n/a	n/a	10140	1	1	40	198	2	n/a	controlFoil1
374.035	3.5	criticalItem	n/a	n/a	20141	2	1	41	199	2	n/a	criticalFalse
378.078	3.5	genericItem	n/a	n/a	10142	1	1	42	200	2	n/a	n/a
382.025	3.5	genericItem	n/a	n/a	10143	1	1	43	201	2	n/a	n/a
386.09	3.5	genericItem	n/a	n/a	10144	1	1	44	202	2	n/a	n/a
390.026	3.5	genericItem	n/a	n/a	10145	1	1	45	203	2	n/a	n/a
394.025	3.5	controlItem	n/a	n/a	10146	1	1	46	204	2	n/a	controlTrue
398.026	3.5	genericItem	n/a	n/a	10147	1	1	47	205	2	n/a	n/a
402.023	3.5	genericItem	n/a	n/a	10148	1	1	48	206	2	n/a	n/a
406.06	3.5	controlItem	n/a	n/a	10149	1	1	49	207	2	n/a	controlFoil1
410.035	3.5	criticalItem	n/a	n/a	20150	2	1	50	208	2	n/a	criticalTrue
414.081	n/a	n/a	n/a	n/a	90100	9	1	0	209	2	n/a	n/a
418.019	n/a	n/a	n/a	n/a	90000	5	0	0	210	2	n/a	n/a
