onset	duration	trial_type	response	response_time	stim_id	stim_events	stim_slides	trial_id	run_id	stim_type	response_type
2.0076	n/a	n/a	n/a	n/a	80500	5	0	149	2	8	n/a
12.0056	3.5	controlItem	n/a	n/a	10524	5	24	150	2	1	n/a
15.4904	3.0	controlItem	n/a	n/a	70524	5	24	151	2	0	n/a
18.489	3.0	controlItem	Foil1	1.591	70524	5	24	152	2	7	controlFoil1
22.0064	3.5	controlItem	n/a	n/a	10527	5	27	153	2	1	n/a
25.4883	3.0	controlItem	n/a	n/a	70527	5	27	154	2	0	n/a
28.4891	3.0	controlItem	Foil1	0.731	70527	5	27	155	2	7	controlFoil1
32.0038	3.5	criticalItem	n/a	n/a	10519	5	19	156	2	1	n/a
35.4875	3.0	criticalItem	n/a	n/a	70519	5	19	157	2	0	n/a
38.4881	3.0	criticalItem	False	0.578	70519	5	19	158	2	7	criticalFalse
42.0045	3.5	controlItem	n/a	n/a	10532	5	32	159	2	1	n/a
45.4864	3.0	controlItem	n/a	n/a	40532	5	32	160	2	0	n/a
48.4874	3.0	controlItem	Foil2	1.599	40532	5	32	161	2	4	controlFoil2
52.0027	3.5	criticalItem	n/a	n/a	10521	5	21	162	2	1	n/a
55.4866	3.0	criticalItem	n/a	n/a	60521	5	21	163	2	0	n/a
58.4862	3.0	criticalItem	False	1.213	60521	5	21	164	2	6	criticalFalse
62.0025	3.5	controlItem	n/a	n/a	10525	5	25	165	2	1	n/a
65.4844	3.0	controlItem	n/a	n/a	50525	5	25	166	2	0	n/a
68.4852	3.0	controlItem	True	0.894	50525	5	25	167	2	5	controlTrue
72.0004	3.5	controlItem	n/a	n/a	10549	5	49	168	2	1	n/a
75.4829	3.0	controlItem	n/a	n/a	60549	5	49	169	2	0	n/a
78.4831	3.0	controlItem	True	0.719	60549	5	49	170	2	6	controlTrue
82.0165	3.5	controlItem	n/a	n/a	10514	5	14	171	2	1	n/a
85.5002	3.0	controlItem	n/a	n/a	20514	5	14	172	2	0	n/a
88.4989	3.0	controlItem	True	0.629	20514	5	14	173	2	2	controlTrue
91.9995	3.5	criticalItem	n/a	n/a	10531	5	31	174	2	1	n/a
95.4816	3.0	criticalItem	n/a	n/a	30531	5	31	175	2	0	n/a
98.4822	3.0	criticalItem	False	0.747	30531	5	31	176	2	3	criticalFalse
102.015	3.5	criticalItem	n/a	n/a	10526	5	26	177	2	1	n/a
105.498	3.0	criticalItem	n/a	n/a	20526	5	26	178	2	0	n/a
108.497	3.0	criticalItem	Foil	2.406	20526	5	26	179	2	2	criticalFoil
112.014	3.5	criticalItem	n/a	n/a	10503	5	3	180	2	1	n/a
115.496	3.0	criticalItem	n/a	n/a	50503	5	3	181	2	0	n/a
118.496	3.0	criticalItem	False	0.5	50503	5	3	182	2	5	criticalFalse
122.013	3.5	criticalItem	n/a	n/a	10516	5	16	183	2	1	n/a
125.495	3.0	criticalItem	n/a	n/a	40516	5	16	184	2	0	n/a
128.496	3.0	criticalItem	False	0.71	40516	5	16	185	2	4	criticalFalse
132.011	3.5	controlItem	n/a	n/a	10517	5	17	186	2	1	n/a
135.495	3.0	controlItem	n/a	n/a	70517	5	17	187	2	0	n/a
138.495	3.0	controlItem	Foil1	1.4	70517	5	17	188	2	7	controlFoil1
142.01	3.5	criticalItem	n/a	n/a	10550	5	50	189	2	1	n/a
145.494	3.0	criticalItem	n/a	n/a	70550	5	50	190	2	0	n/a
148.493	3.0	criticalItem	True	1.202	70550	5	50	191	2	7	criticalTrue
152.009	3.5	controlItem	n/a	n/a	10518	5	18	192	2	1	n/a
155.492	3.0	controlItem	n/a	n/a	30518	5	18	193	2	0	n/a
158.492	3.0	controlItem	True	0.53	30518	5	18	194	2	3	controlTrue
162.008	3.5	criticalItem	n/a	n/a	10539	5	39	195	2	1	n/a
165.491	3.0	criticalItem	n/a	n/a	50539	5	39	196	2	0	n/a
168.492	3.0	criticalItem	False	2.521	50539	5	39	197	2	5	criticalFalse
172.007	3.5	controlItem	n/a	n/a	10542	5	42	198	2	1	n/a
175.491	3.0	controlItem	n/a	n/a	70542	5	42	199	2	0	n/a
178.491	3.0	controlItem	True	0.847	70542	5	42	200	2	7	controlTrue
182.007	3.5	controlItem	n/a	n/a	10522	5	22	201	2	1	n/a
185.49	3.0	controlItem	n/a	n/a	30522	5	22	202	2	0	n/a
188.489	3.0	controlItem	Foil1	1.017	30522	5	22	203	2	3	controlFoil1
192.005	3.5	criticalItem	n/a	n/a	10547	5	47	204	2	1	n/a
195.489	3.0	criticalItem	n/a	n/a	50547	5	47	205	2	0	n/a
198.489	3.0	criticalItem	False	0.804	50547	5	47	206	2	5	criticalFalse
202.004	3.5	controlItem	n/a	n/a	10546	5	46	207	2	1	n/a
205.489	3.0	controlItem	n/a	n/a	50546	5	46	208	2	0	n/a
208.488	3.0	controlItem	Foil2	0.885	50546	5	46	209	2	5	controlFoil2
212.004	3.5	criticalItem	n/a	n/a	10541	5	41	210	2	1	n/a
215.486	3.0	criticalItem	n/a	n/a	50541	5	41	211	2	0	n/a
218.486	3.0	criticalItem	True	1.906	50541	5	41	212	2	5	criticalTrue
222.003	3.5	criticalItem	n/a	n/a	10523	5	23	213	2	1	n/a
225.485	3.0	criticalItem	n/a	n/a	30523	5	23	214	2	0	n/a
228.485	3.0	criticalItem	True	0.787	30523	5	23	215	2	3	criticalTrue
232.002	3.5	controlItem	n/a	n/a	10515	5	15	216	2	1	n/a
235.485	3.0	controlItem	n/a	n/a	30515	5	15	217	2	0	n/a
238.484	3.0	controlItem	Foil2	1.32	30515	5	15	218	2	3	controlFoil2
242.001	3.5	criticalItem	n/a	n/a	10505	5	5	219	2	1	n/a
245.484	3.0	criticalItem	n/a	n/a	40505	5	5	220	2	0	n/a
248.483	3.0	criticalItem	False	0.66	40505	5	5	221	2	4	criticalFalse
252	n/a	n/a	n/a	n/a	90500	5	0	222	2	9	n/a
256	n/a	n/a	n/a	n/a	80700	7	0	223	2	8	n/a
266.015	3.5	criticalItem	n/a	n/a	10729	7	29	224	2	1	n/a
269.497	3.0	criticalItem	n/a	n/a	60729	7	29	225	2	0	n/a
272.498	3.0	criticalItem	True	0.529	60729	7	29	226	2	6	criticalTrue
276.015	3.5	controlItem	n/a	n/a	10714	7	14	227	2	1	n/a
279.498	3.0	controlItem	n/a	n/a	40714	7	14	228	2	0	n/a
282.496	3.0	controlItem	Foil2	0.696	40714	7	14	229	2	4	controlFoil2
286.012	3.5	controlItem	n/a	n/a	10750	7	50	230	2	1	n/a
289.497	3.0	controlItem	n/a	n/a	40750	7	50	231	2	0	n/a
292.496	3.0	controlItem	Foil1	0.624	40750	7	50	232	2	4	controlFoil1
296.011	3.5	criticalItem	n/a	n/a	10712	7	12	233	2	1	n/a
299.496	3.0	criticalItem	n/a	n/a	30712	7	12	234	2	0	n/a
302.495	3.0	criticalItem	True	0.668	30712	7	12	235	2	3	criticalTrue
306.011	3.5	controlItem	n/a	n/a	10711	7	11	236	2	1	n/a
309.495	3.0	controlItem	n/a	n/a	20711	7	11	237	2	0	n/a
312.495	3.0	controlItem	Foil1	0.803	20711	7	11	238	2	2	controlFoil1
316.01	3.5	criticalItem	n/a	n/a	10704	7	4	239	2	1	n/a
319.494	3.0	criticalItem	n/a	n/a	40704	7	4	240	2	0	n/a
322.492	3.0	criticalItem	False	0.609	40704	7	4	241	2	4	criticalFalse
326.008	3.5	controlItem	n/a	n/a	10708	7	8	242	2	1	n/a
329.492	3.0	controlItem	n/a	n/a	60708	7	8	243	2	0	n/a
332.491	3.0	controlItem	True	1.034	60708	7	8	244	2	6	controlTrue
336.009	3.5	criticalItem	n/a	n/a	10709	7	9	245	2	1	n/a
339.492	3.0	criticalItem	n/a	n/a	60709	7	9	246	2	0	n/a
342.49	3.0	criticalItem	True	0.759	60709	7	9	247	2	6	criticalTrue
346.007	3.5	criticalItem	n/a	n/a	10721	7	21	248	2	1	n/a
349.491	3.0	criticalItem	n/a	n/a	70721	7	21	249	2	0	n/a
352.49	3.0	criticalItem	Foil	1.221	70721	7	21	250	2	7	criticalFoil
356.007	3.5	criticalItem	n/a	n/a	10726	7	26	251	2	1	n/a
359.491	3.0	criticalItem	n/a	n/a	20726	7	26	252	2	0	n/a
362.489	3.0	criticalItem	False	0.5	20726	7	26	253	2	2	criticalFalse
366.004	3.5	controlItem	n/a	n/a	10740	7	40	254	2	1	n/a
369.489	3.0	controlItem	n/a	n/a	60740	7	40	255	2	0	n/a
372.488	3.0	controlItem	True	1.189	60740	7	40	256	2	6	controlTrue
376.004	3.5	criticalItem	n/a	n/a	10739	7	39	257	2	1	n/a
379.487	3.0	criticalItem	n/a	n/a	20739	7	39	258	2	0	n/a
382.486	3.0	criticalItem	True	1.778	20739	7	39	259	2	2	criticalTrue
386.002	3.5	controlItem	n/a	n/a	10734	7	34	260	2	1	n/a
389.487	3.0	controlItem	n/a	n/a	60734	7	34	261	2	0	n/a
392.486	3.0	controlItem	Foil1	2.082	60734	7	34	262	2	6	controlFoil1
396.001	3.5	controlItem	n/a	n/a	10728	7	28	263	2	1	n/a
399.485	3.0	controlItem	n/a	n/a	30728	7	28	264	2	0	n/a
402.485	3.0	controlItem	True	2.729	30728	7	28	265	2	3	controlTrue
406.002	3.5	criticalItem	n/a	n/a	10749	7	49	266	2	1	n/a
409.485	3.0	criticalItem	n/a	n/a	20749	7	49	267	2	0	n/a
412.484	3.0	criticalItem	False	1.114	20749	7	49	268	2	2	criticalFalse
416.001	3.5	criticalItem	n/a	n/a	10744	7	44	269	2	1	n/a
419.484	3.0	criticalItem	n/a	n/a	40744	7	44	270	2	0	n/a
422.484	3.0	criticalItem	True	0.855	40744	7	44	271	2	4	criticalTrue
425.999	3.5	controlItem	n/a	n/a	10703	7	3	272	2	1	n/a
429.481	3.0	controlItem	n/a	n/a	60703	7	3	273	2	0	n/a
432.483	3.0	controlItem	Foil1	1.127	60703	7	3	274	2	6	controlFoil1
436.014	3.5	criticalItem	n/a	n/a	10746	7	46	275	2	1	n/a
439.498	3.0	criticalItem	n/a	n/a	20746	7	46	276	2	0	n/a
442.498	3.0	criticalItem	False	1.913	20746	7	46	277	2	2	criticalFalse
446.014	3.5	criticalItem	n/a	n/a	10719	7	19	278	2	1	n/a
449.497	3.0	criticalItem	n/a	n/a	40719	7	19	279	2	0	n/a
452.497	3.0	criticalItem	True	0.718	40719	7	19	280	2	4	criticalTrue
456.012	3.5	criticalItem	n/a	n/a	10735	7	35	281	2	1	n/a
459.496	3.0	criticalItem	n/a	n/a	70735	7	35	282	2	0	n/a
462.496	3.0	criticalItem	False	0.596	70735	7	35	283	2	7	criticalFalse
466.011	3.5	controlItem	n/a	n/a	10707	7	7	284	2	1	n/a
469.494	3.0	controlItem	n/a	n/a	30707	7	7	285	2	0	n/a
472.494	3.0	controlItem	True	0.567	30707	7	7	286	2	3	controlTrue
476.01	3.5	controlItem	n/a	n/a	10705	7	5	287	2	1	n/a
479.493	3.0	controlItem	n/a	n/a	30705	7	5	288	2	0	n/a
482.493	3.0	controlItem	True	0.679	30705	7	5	289	2	3	controlTrue
486.009	3.5	controlItem	n/a	n/a	10720	7	20	290	2	1	n/a
489.493	3.0	controlItem	n/a	n/a	60720	7	20	291	2	0	n/a
492.493	3.0	controlItem	True	0.954	60720	7	20	292	2	6	controlTrue
496.01	3.5	controlItem	n/a	n/a	10718	7	18	293	2	1	n/a
499.492	3.0	controlItem	n/a	n/a	20718	7	18	294	2	0	n/a
502.491	3.0	controlItem	True	0.917	20718	7	18	295	2	2	controlTrue
506.008	n/a	n/a	n/a	n/a	90700	7	0	296	2	9	n/a
