onset	duration	trial_type	response	response_time	stim_id	stim_events	stim_slides	trial_id	run_id	stim_type	response_type
2.00865	n/a	n/a	n/a	n/a	80300	3	0	297	3	8	n/a
12.0077	3.5	criticalItem	n/a	n/a	10327	3	27	298	3	1	n/a
15.492	3.0	criticalItem	n/a	n/a	40327	3	27	299	3	0	n/a
18.4912	3.0	criticalItem	True	0.333	40327	3	27	300	3	4	criticalTrue
22.007	3.5	controlItem	n/a	n/a	10345	3	45	301	3	1	n/a
25.4908	3.0	controlItem	n/a	n/a	50345	3	45	302	3	0	n/a
28.4902	3.0	controlItem	True	0.338	50345	3	45	303	3	5	controlTrue
32.0061	3.5	controlItem	n/a	n/a	10325	3	25	304	3	1	n/a
35.4895	3.0	controlItem	n/a	n/a	20325	3	25	305	3	0	n/a
38.4891	3.0	controlItem	Foil1	2.112	20325	3	25	306	3	2	controlFoil1
42.0056	3.5	criticalItem	n/a	n/a	10324	3	24	307	3	1	n/a
45.4899	3.0	criticalItem	n/a	n/a	70324	3	24	308	3	0	n/a
48.4898	3.0	criticalItem	False	0.839	70324	3	24	309	3	7	criticalFalse
52.0036	3.5	controlItem	n/a	n/a	10331	3	31	310	3	1	n/a
55.4875	3.0	controlItem	n/a	n/a	20331	3	31	311	3	0	n/a
58.487	3.0	controlItem	True	0.335	20331	3	31	312	3	2	controlTrue
62.0028	3.5	criticalItem	n/a	n/a	10347	3	47	313	3	1	n/a
65.4875	3.0	criticalItem	n/a	n/a	30347	3	47	314	3	0	n/a
68.4862	3.0	criticalItem	Foil	0.277	30347	3	47	315	3	3	criticalFoil
72.0018	3.5	criticalItem	n/a	n/a	10341	3	41	316	3	1	n/a
75.485	3.0	criticalItem	n/a	n/a	50341	3	41	317	3	0	n/a
78.4852	3.0	criticalItem	True	0.293	50341	3	41	318	3	5	criticalTrue
82.0008	3.5	criticalItem	n/a	n/a	10305	3	5	319	3	1	n/a
85.486	3.0	criticalItem	n/a	n/a	40305	3	5	320	3	0	n/a
88.4858	3.0	criticalItem	False	0.562	40305	3	5	321	3	4	criticalFalse
91.9999	3.5	controlItem	n/a	n/a	10350	3	50	322	3	1	n/a
95.4837	3.0	controlItem	n/a	n/a	50350	3	50	323	3	0	n/a
98.4827	3.0	controlItem	True	0.608	50350	3	50	324	3	5	controlTrue
102.015	3.5	criticalItem	n/a	n/a	10316	3	16	325	3	1	n/a
105.499	3.0	criticalItem	n/a	n/a	30316	3	16	326	3	0	n/a
108.499	3.0	criticalItem	Foil	1.2	30316	3	16	327	3	3	criticalFoil
112.015	3.5	criticalItem	n/a	n/a	10319	3	19	328	3	1	n/a
115.498	3.0	criticalItem	n/a	n/a	70319	3	19	329	3	0	n/a
118.498	3.0	criticalItem	True	0.309	70319	3	19	330	3	7	criticalTrue
121.999	3.5	controlItem	n/a	n/a	10320	3	20	331	3	1	n/a
125.48	3.0	controlItem	n/a	n/a	20320	3	20	332	3	0	n/a
128.48	3.0	controlItem	True	0.67	20320	3	20	333	3	2	controlTrue
132.013	3.5	controlItem	n/a	n/a	10313	3	13	334	3	1	n/a
135.496	3.0	controlItem	n/a	n/a	50313	3	13	335	3	0	n/a
138.496	3.0	controlItem	True	0.319	50313	3	13	336	3	5	controlTrue
142.012	3.5	controlItem	n/a	n/a	10309	3	9	337	3	1	n/a
145.497	3.0	controlItem	n/a	n/a	60309	3	9	338	3	0	n/a
148.495	3.0	controlItem	True	0.282	60309	3	9	339	3	6	controlTrue
152.01	3.5	controlItem	n/a	n/a	10317	3	17	340	3	1	n/a
155.494	3.0	controlItem	n/a	n/a	20317	3	17	341	3	0	n/a
158.495	3.0	controlItem	True	0.561	20317	3	17	342	3	2	controlTrue
162.009	3.5	controlItem	n/a	n/a	10303	3	3	343	3	1	n/a
165.494	3.0	controlItem	n/a	n/a	70303	3	3	344	3	0	n/a
168.493	3.0	controlItem	Foil2	1.253	70303	3	3	345	3	7	controlFoil2
172.008	3.5	criticalItem	n/a	n/a	10336	3	36	346	3	1	n/a
175.493	3.0	criticalItem	n/a	n/a	50336	3	36	347	3	0	n/a
178.492	3.0	criticalItem	True	0.591	50336	3	36	348	3	5	criticalTrue
182.008	3.5	criticalItem	n/a	n/a	10344	3	44	349	3	1	n/a
185.492	3.0	criticalItem	n/a	n/a	50344	3	44	350	3	0	n/a
188.491	3.0	criticalItem	False	0.313	50344	3	44	351	3	5	criticalFalse
192.007	3.5	controlItem	n/a	n/a	10342	3	42	352	3	1	n/a
195.491	3.0	controlItem	n/a	n/a	40342	3	42	353	3	0	n/a
198.49	3.0	controlItem	Foil1	0.375	40342	3	42	354	3	4	controlFoil1
202.006	3.5	controlItem	n/a	n/a	10329	3	29	355	3	1	n/a
205.489	3.0	controlItem	n/a	n/a	40329	3	29	356	3	0	n/a
208.489	3.0	controlItem	True	0.278	40329	3	29	357	3	4	controlTrue
212.004	3.5	criticalItem	n/a	n/a	10322	3	22	358	3	1	n/a
215.489	3.0	criticalItem	n/a	n/a	40322	3	22	359	3	0	n/a
218.49	3.0	criticalItem	True	0.411	40322	3	22	360	3	4	criticalTrue
222.004	3.5	controlItem	n/a	n/a	10348	3	48	361	3	1	n/a
225.489	3.0	controlItem	n/a	n/a	50348	3	48	362	3	0	n/a
228.487	3.0	controlItem	True	0.661	50348	3	48	363	3	5	controlTrue
232.003	3.5	criticalItem	n/a	n/a	10332	3	32	364	3	1	n/a
235.486	3.0	criticalItem	n/a	n/a	50332	3	32	365	3	0	n/a
238.486	3.0	criticalItem	True	0.349	50332	3	32	366	3	5	criticalTrue
242.003	3.5	criticalItem	n/a	n/a	10330	3	30	367	3	1	n/a
245.486	3.0	criticalItem	n/a	n/a	50330	3	30	368	3	0	n/a
248.485	3.0	criticalItem	True	0.328	50330	3	30	369	3	5	criticalTrue
252.001	n/a	n/a	n/a	n/a	90300	3	0	370	3	9	n/a
256	n/a	n/a	n/a	n/a	80900	9	0	371	3	8	n/a
265.999	3.5	criticalItem	n/a	n/a	10941	9	41	372	3	1	n/a
269.484	3.0	criticalItem	n/a	n/a	40941	9	41	373	3	0	n/a
272.484	3.0	criticalItem	True	0.437	40941	9	41	374	3	4	criticalTrue
276	3.5	controlItem	n/a	n/a	10905	9	5	375	3	1	n/a
279.482	3.0	controlItem	n/a	n/a	20905	9	5	376	3	0	n/a
282.481	3.0	controlItem	Foil1	0.266	20905	9	5	377	3	2	controlFoil1
286.014	3.5	criticalItem	n/a	n/a	10919	9	19	378	3	1	n/a
289.497	3.0	criticalItem	n/a	n/a	20919	9	19	379	3	0	n/a
292.497	3.0	criticalItem	Foil	0.286	20919	9	19	380	3	2	criticalFoil
296.013	3.5	criticalItem	n/a	n/a	10922	9	22	381	3	1	n/a
299.498	3.0	criticalItem	n/a	n/a	20922	9	22	382	3	0	n/a
302.496	3.0	criticalItem	Foil	0.299	20922	9	22	383	3	2	criticalFoil
306.012	3.5	controlItem	n/a	n/a	10943	9	43	384	3	1	n/a
309.497	3.0	controlItem	n/a	n/a	60943	9	43	385	3	0	n/a
312.497	3.0	controlItem	True	0.503	60943	9	43	386	3	6	controlTrue
316.011	3.5	criticalItem	n/a	n/a	10908	9	8	387	3	1	n/a
319.494	3.0	criticalItem	n/a	n/a	50908	9	8	388	3	0	n/a
322.495	3.0	criticalItem	True	0.338	50908	9	8	389	3	5	criticalTrue
326.01	3.5	criticalItem	n/a	n/a	10913	9	13	390	3	1	n/a
329.493	3.0	criticalItem	n/a	n/a	50913	9	13	391	3	0	n/a
332.493	3.0	criticalItem	True	0.32	50913	9	13	392	3	5	criticalTrue
336.009	3.5	controlItem	n/a	n/a	10903	9	3	393	3	1	n/a
339.493	3.0	controlItem	n/a	n/a	60903	9	3	394	3	0	n/a
342.492	3.0	controlItem	True	0.295	60903	9	3	395	3	6	controlTrue
346.008	3.5	criticalItem	n/a	n/a	10928	9	28	396	3	1	n/a
349.491	3.0	criticalItem	n/a	n/a	40928	9	28	397	3	0	n/a
352.491	3.0	criticalItem	True	0.72	40928	9	28	398	3	4	criticalTrue
356.007	3.5	controlItem	n/a	n/a	10909	9	9	399	3	1	n/a
359.49	3.0	controlItem	n/a	n/a	20909	9	9	400	3	0	n/a
362.49	3.0	controlItem	Foil2	0.769	20909	9	9	401	3	2	controlFoil2
366.006	3.5	controlItem	n/a	n/a	10917	9	17	402	3	1	n/a
369.491	3.0	controlItem	n/a	n/a	40917	9	17	403	3	0	n/a
372.489	3.0	controlItem	True	0.322	40917	9	17	404	3	4	controlTrue
376.005	3.5	controlItem	n/a	n/a	10931	9	31	405	3	1	n/a
379.49	3.0	controlItem	n/a	n/a	30931	9	31	406	3	0	n/a
382.49	3.0	controlItem	Foil1	0.3	30931	9	31	407	3	3	controlFoil1
386.004	3.5	criticalItem	n/a	n/a	10904	9	4	408	3	1	n/a
389.488	3.0	criticalItem	n/a	n/a	30904	9	4	409	3	0	n/a
392.489	3.0	criticalItem	True	0.291	30904	9	4	410	3	3	criticalTrue
396.003	3.5	criticalItem	n/a	n/a	10924	9	24	411	3	1	n/a
399.488	3.0	criticalItem	n/a	n/a	60924	9	24	412	3	0	n/a
402.488	3.0	criticalItem	False	0.475	60924	9	24	413	3	6	criticalFalse
406.002	3.5	criticalItem	n/a	n/a	10949	9	49	414	3	1	n/a
409.485	3.0	criticalItem	n/a	n/a	60949	9	49	415	3	0	n/a
412.485	3.0	criticalItem	True	0.308	60949	9	49	416	3	6	criticalTrue
416.001	3.5	controlItem	n/a	n/a	10911	9	11	417	3	1	n/a
419.485	3.0	controlItem	n/a	n/a	40911	9	11	418	3	0	n/a
422.485	3.0	controlItem	True	0.366	40911	9	11	419	3	4	controlTrue
426.002	3.5	controlItem	n/a	n/a	10947	9	47	420	3	1	n/a
429.484	3.0	controlItem	n/a	n/a	40947	9	47	421	3	0	n/a
432.483	3.0	controlItem	Foil1	0.532	40947	9	47	422	3	4	controlFoil1
436	3.5	controlItem	n/a	n/a	10950	9	50	423	3	1	n/a
439.483	3.0	controlItem	n/a	n/a	60950	9	50	424	3	0	n/a
442.482	3.0	controlItem	True	0.592	60950	9	50	425	3	6	controlTrue
446.015	3.5	controlItem	n/a	n/a	10923	9	23	426	3	1	n/a
449.499	3.0	controlItem	n/a	n/a	30923	9	23	427	3	0	n/a
452.499	3.0	controlItem	Foil2	0.306	30923	9	23	428	3	3	controlFoil2
456.014	3.5	criticalItem	n/a	n/a	10935	9	35	429	3	1	n/a
459.497	3.0	criticalItem	n/a	n/a	30935	9	35	430	3	0	n/a
462.497	3.0	criticalItem	True	0.515	30935	9	35	431	3	3	criticalTrue
466.013	3.5	controlItem	n/a	n/a	10945	9	45	432	3	1	n/a
469.497	3.0	controlItem	n/a	n/a	70945	9	45	433	3	0	n/a
472.496	3.0	controlItem	Foil1	0.609	70945	9	45	434	3	7	controlFoil1
476.014	3.5	criticalItem	n/a	n/a	10910	9	10	435	3	1	n/a
479.496	3.0	criticalItem	n/a	n/a	20910	9	10	436	3	0	n/a
482.495	3.0	criticalItem	True	0.297	20910	9	10	437	3	2	criticalTrue
486.012	3.5	criticalItem	n/a	n/a	10926	9	26	438	3	1	n/a
489.496	3.0	criticalItem	n/a	n/a	20926	9	26	439	3	0	n/a
492.496	3.0	criticalItem	False	0.328	20926	9	26	440	3	2	criticalFalse
496.01	3.5	controlItem	n/a	n/a	10915	9	15	441	3	1	n/a
499.495	3.0	controlItem	n/a	n/a	40915	9	15	442	3	0	n/a
502.495	3.0	controlItem	Foil1	0.395	40915	9	15	443	3	4	controlFoil1
506.009	n/a	n/a	n/a	n/a	90900	9	0	444	3	9	n/a
