onset	duration	trial_type	response	response_time	stim_id	stim_version	stim_events	stim_slides	trial_id	run_id	stim_redcross	subsequent_response_type
2.0281	n/a	n/a	n/a	n/a	81000	8	10	0	1	1	n/a	n/a
6.0261	3.5	genericItem	n/a	n/a	11001	1	10	1	2	1	n/a	n/a
10.027	3.5	genericItem	n/a	n/a	11002	1	10	2	3	1	n/a	n/a
14.3232	3.5	criticalItem	n/a	n/a	21003	2	10	3	4	1	n/a	criticalTrue
18.0265	3.5	genericItem	n/a	n/a	11004	1	10	4	5	1	n/a	n/a
22.0499	3.5	criticalItem	n/a	n/a	21005	2	10	5	6	1	n/a	criticalFalse
26.026	3.5	genericItem	n/a	n/a	11006	1	10	6	7	1	n/a	n/a
30.0266	3.5	genericItem	n/a	n/a	11007	1	10	7	8	1	n/a	n/a
34.0905	3.5	criticalItem	n/a	n/a	21008	2	10	8	9	1	n/a	criticalFalse
38.0271	3.5	genericItem	n/a	n/a	11009	1	10	9	10	1	n/a	n/a
42.3381	3.5	criticalItem	n/a	n/a	21010	2	10	10	11	1	n/a	criticalFalse
46.0271	3.5	genericItem	n/a	n/a	11011	1	10	11	12	1	n/a	n/a
50.0273	3.5	genericItem	n/a	n/a	11012	1	10	12	13	1	n/a	n/a
54.0274	3.5	genericItem	1	0.12	11013	1	10	13	14	1	1	n/a
58.0273	3.5	genericItem	n/a	n/a	11014	1	10	14	15	1	n/a	n/a
62.4679	3.5	criticalItem	n/a	n/a	21015	2	10	15	16	1	n/a	criticalFalse
66.0276	3.5	genericItem	n/a	n/a	11016	1	10	16	17	1	n/a	n/a
70.0295	3.5	controlItem	n/a	n/a	11017	1	10	17	18	1	n/a	controlTrue
74.0674	3.5	criticalItem	n/a	n/a	21018	2	10	18	19	1	n/a	criticalTrue
78.0291	3.5	controlItem	n/a	n/a	11019	1	10	19	20	1	n/a	controlTrue
82.3456	3.5	criticalItem	n/a	n/a	21020	2	10	20	21	1	n/a	criticalFalse
86.0277	3.5	controlItem	n/a	n/a	11021	1	10	21	22	1	n/a	controlTrue
90.0299	3.5	genericItem	1	0.627	11022	1	10	22	23	1	1	n/a
94.1001	3.5	criticalItem	n/a	n/a	21023	2	10	23	24	1	n/a	criticalFoil
98.0275	3.5	genericItem	n/a	n/a	11024	1	10	24	25	1	n/a	n/a
102.027	3.5	genericItem	1	0.49	11025	1	10	25	26	1	1	n/a
106.313	3.5	criticalItem	n/a	n/a	21026	2	10	26	27	1	n/a	criticalFoil
110.027	3.5	genericItem	n/a	n/a	11027	1	10	27	28	1	n/a	n/a
114.026	3.5	controlItem	n/a	n/a	11028	1	10	28	29	1	n/a	controlTrue
118.025	3.5	controlItem	n/a	n/a	11029	1	10	29	30	1	n/a	controlFoil2
122.026	3.5	genericItem	1	0.707	11030	1	10	30	31	1	1	n/a
126.026	3.5	controlItem	n/a	n/a	11031	1	10	31	32	1	n/a	controlFoil1
130.027	3.5	genericItem	n/a	n/a	11032	1	10	32	33	1	n/a	n/a
134.346	3.5	criticalItem	n/a	n/a	21033	2	10	33	34	1	n/a	criticalTrue
138.026	3.5	genericItem	n/a	n/a	11034	1	10	34	35	1	n/a	n/a
142.109	3.5	criticalItem	n/a	n/a	21035	2	10	35	36	1	n/a	criticalTrue
146.026	3.5	genericItem	n/a	n/a	11036	1	10	36	37	1	n/a	n/a
150.027	3.5	controlItem	n/a	n/a	11037	1	10	37	38	1	n/a	controlTrue
154.028	3.5	controlItem	n/a	n/a	11038	1	10	38	39	1	n/a	controlFoil2
158.029	3.5	controlItem	n/a	n/a	11039	1	10	39	40	1	n/a	controlFoil1
162.027	3.5	controlItem	n/a	n/a	11040	1	10	40	41	1	n/a	controlFoil2
166.027	3.5	genericItem	n/a	n/a	11041	1	10	41	42	1	n/a	n/a
170.027	3.5	genericItem	n/a	n/a	11042	1	10	42	43	1	n/a	n/a
174.028	3.5	genericItem	n/a	n/a	11043	1	10	43	44	1	n/a	n/a
178.027	3.5	genericItem	n/a	n/a	11044	1	10	44	45	1	n/a	n/a
182.332	3.5	criticalItem	n/a	n/a	21045	2	10	45	46	1	n/a	criticalFalse
186.028	3.5	controlItem	n/a	n/a	11046	1	10	46	47	1	n/a	controlFoil1
190.028	3.5	genericItem	n/a	n/a	11047	1	10	47	48	1	n/a	n/a
194.029	3.5	genericItem	n/a	n/a	11048	1	10	48	49	1	n/a	n/a
198.027	3.5	controlItem	n/a	n/a	11049	1	10	49	50	1	n/a	controlTrue
202.028	3.5	genericItem	n/a	n/a	11050	1	10	50	51	1	n/a	n/a
206.024	n/a	n/a	n/a	n/a	91000	9	10	0	52	1	n/a	n/a
210.024	n/a	n/a	n/a	n/a	80100	8	1	0	53	1	n/a	n/a
214.032	3.5	genericItem	n/a	n/a	10101	1	1	1	54	1	n/a	n/a
218.032	3.5	genericItem	n/a	n/a	10102	1	1	2	55	1	n/a	n/a
222.031	3.5	genericItem	1	0.433	10103	1	1	3	56	1	1	n/a
226.03	3.5	controlItem	n/a	n/a	10104	1	1	4	57	1	n/a	controlTrue
230.03	3.5	genericItem	n/a	n/a	10105	1	1	5	58	1	n/a	n/a
234.03	3.5	genericItem	n/a	n/a	10106	1	1	6	59	1	n/a	n/a
238.032	3.5	controlItem	n/a	n/a	10107	1	1	7	60	1	n/a	controlTrue
242.032	3.5	genericItem	n/a	n/a	10108	1	1	8	61	1	n/a	n/a
246.031	3.5	genericItem	n/a	n/a	10109	1	1	9	62	1	n/a	n/a
250.03	3.5	criticalItem	n/a	n/a	20110	2	1	10	63	1	n/a	criticalTrue
254.032	3.5	genericItem	n/a	n/a	10111	1	1	11	64	1	n/a	n/a
258.029	3.5	criticalItem	n/a	n/a	20112	2	1	12	65	1	n/a	criticalFalse
262.031	3.5	genericItem	n/a	n/a	10113	1	1	13	66	1	n/a	n/a
266.031	3.5	criticalItem	n/a	n/a	20114	2	1	14	67	1	n/a	criticalTrue
270.032	3.5	genericItem	n/a	n/a	10115	1	1	15	68	1	n/a	n/a
274.032	3.5	controlItem	n/a	n/a	10116	1	1	16	69	1	n/a	controlFoil1
278.029	3.5	criticalItem	n/a	n/a	20117	2	1	17	70	1	n/a	criticalFalse
282.033	3.5	controlItem	n/a	n/a	10118	1	1	18	71	1	n/a	controlFoil1
286.031	3.5	criticalItem	n/a	n/a	20119	2	1	19	72	1	n/a	criticalTrue
290.032	3.5	genericItem	n/a	n/a	10120	1	1	20	73	1	n/a	n/a
294.031	3.5	controlItem	n/a	n/a	10121	1	1	21	74	1	n/a	controlFoil2
298.032	3.5	criticalItem	n/a	n/a	20122	2	1	22	75	1	n/a	criticalTrue
302.032	3.5	controlItem	n/a	n/a	10123	1	1	23	76	1	n/a	controlFoil2
306.032	3.5	controlItem	n/a	n/a	10124	1	1	24	77	1	n/a	controlFoil1
310.031	3.5	controlItem	n/a	n/a	10125	1	1	25	78	1	n/a	controlFoil1
314.03	3.5	criticalItem	n/a	n/a	20126	2	1	26	79	1	n/a	criticalFalse
318.031	3.5	genericItem	n/a	n/a	10127	1	1	27	80	1	n/a	n/a
322.031	3.5	criticalItem	n/a	n/a	20128	2	1	28	81	1	n/a	criticalTrue
326.029	3.5	genericItem	1	0.627	10129	1	1	29	82	1	1	n/a
330.031	3.5	genericItem	n/a	n/a	10130	1	1	30	83	1	n/a	n/a
334.031	3.5	criticalItem	n/a	n/a	20131	2	1	31	84	1	n/a	criticalTrue
338.029	3.5	controlItem	n/a	n/a	10132	1	1	32	85	1	n/a	controlTrue
342.032	3.5	genericItem	n/a	n/a	10133	1	1	33	86	1	n/a	n/a
346.031	3.5	genericItem	n/a	n/a	10134	1	1	34	87	1	n/a	n/a
350.033	3.5	genericItem	1	0.68	10135	1	1	35	88	1	1	n/a
354.032	3.5	criticalItem	n/a	n/a	20136	2	1	36	89	1	n/a	criticalFoil
358.033	3.5	genericItem	n/a	n/a	10137	1	1	37	90	1	n/a	n/a
362.032	3.5	genericItem	n/a	n/a	10138	1	1	38	91	1	n/a	n/a
366.031	3.5	genericItem	n/a	n/a	10139	1	1	39	92	1	n/a	n/a
370.031	3.5	controlItem	n/a	n/a	10140	1	1	40	93	1	n/a	controlTrue
374.029	3.5	criticalItem	n/a	n/a	20141	2	1	41	94	1	n/a	criticalFalse
378.029	3.5	genericItem	n/a	n/a	10142	1	1	42	95	1	n/a	n/a
382.03	3.5	genericItem	1	0.572	10143	1	1	43	96	1	1	n/a
386.029	3.5	genericItem	n/a	n/a	10144	1	1	44	97	1	n/a	n/a
390.029	3.5	genericItem	n/a	n/a	10145	1	1	45	98	1	n/a	n/a
394.029	3.5	controlItem	n/a	n/a	10146	1	1	46	99	1	n/a	controlTrue
398.032	3.5	genericItem	n/a	n/a	10147	1	1	47	100	1	n/a	n/a
402.03	3.5	genericItem	n/a	n/a	10148	1	1	48	101	1	n/a	n/a
406.03	3.5	controlItem	n/a	n/a	10149	1	1	49	102	1	n/a	controlTrue
410.031	3.5	criticalItem	n/a	n/a	20150	2	1	50	103	1	n/a	criticalFalse
414.024	n/a	n/a	n/a	n/a	90100	9	1	0	104	1	n/a	n/a
418.023	n/a	n/a	n/a	n/a	90000	9	0	0	105	1	n/a	n/a
