onset	duration	trial_type	response	response_time	stim_id	stim_version	stim_events	stim_slides	trial_id	run_id	stim_redcross	subsequent_response_type
2.0357	n/a	n/a	n/a	n/a	80900	8	9	0	211	3	n/a	n/a
6.0237	3.5	genericItem	n/a	n/a	10901	1	9	1	212	3	n/a	n/a
10.024	3.5	genericItem	1	0.246	10902	1	9	2	213	3	1	n/a
14.0239	3.5	controlItem	n/a	n/a	10903	1	9	3	214	3	n/a	controlTrue
18.0233	3.5	criticalItem	n/a	n/a	20904	2	9	4	215	3	n/a	criticalTrue
22.0229	3.5	controlItem	n/a	n/a	10905	1	9	5	216	3	n/a	controlFoil1
26.0238	3.5	genericItem	n/a	n/a	10906	1	9	6	217	3	n/a	n/a
30.0234	3.5	genericItem	n/a	n/a	10907	1	9	7	218	3	n/a	n/a
34.0241	3.5	criticalItem	n/a	n/a	20908	2	9	8	219	3	n/a	criticalTrue
38.0249	3.5	controlItem	n/a	n/a	10909	1	9	9	220	3	n/a	controlTrue
42.0231	3.5	criticalItem	n/a	n/a	20910	2	9	10	221	3	n/a	criticalTrue
46.0237	3.5	controlItem	n/a	n/a	10911	1	9	11	222	3	n/a	controlFoil2
50.023	3.5	genericItem	n/a	n/a	10912	1	9	12	223	3	n/a	n/a
54.0235	3.5	criticalItem	n/a	n/a	20913	2	9	13	224	3	n/a	criticalTrue
58.0245	3.5	genericItem	n/a	n/a	10914	1	9	14	225	3	n/a	n/a
62.0236	3.5	controlItem	n/a	n/a	10915	1	9	15	226	3	n/a	controlFoil1
66.0235	3.5	genericItem	n/a	n/a	10916	1	9	16	227	3	n/a	n/a
70.0229	3.5	controlItem	n/a	n/a	10917	1	9	17	228	3	n/a	controlFoil1
74.0235	3.5	genericItem	n/a	n/a	10918	1	9	18	229	3	n/a	n/a
78.0234	3.5	criticalItem	n/a	n/a	20919	2	9	19	230	3	n/a	criticalFoil
82.0236	3.5	genericItem	n/a	n/a	10920	1	9	20	231	3	n/a	n/a
86.0231	3.5	genericItem	n/a	n/a	10921	1	9	21	232	3	n/a	n/a
90.024	3.5	criticalItem	n/a	n/a	20922	2	9	22	233	3	n/a	criticalTrue
94.0239	3.5	controlItem	n/a	n/a	10923	1	9	23	234	3	n/a	controlTrue
98.0229	3.5	criticalItem	n/a	n/a	20924	2	9	24	235	3	n/a	n/a
102.024	3.5	genericItem	n/a	n/a	10925	1	9	25	236	3	n/a	n/a
106.025	3.5	criticalItem	n/a	n/a	20926	2	9	26	237	3	n/a	criticalTrue
110.024	3.5	genericItem	n/a	n/a	10927	1	9	27	238	3	n/a	n/a
114.024	3.5	criticalItem	n/a	n/a	20928	2	9	28	239	3	n/a	criticalFoil
118.024	3.5	genericItem	n/a	n/a	10929	1	9	29	240	3	n/a	n/a
122.024	3.5	genericItem	n/a	n/a	10930	1	9	30	241	3	n/a	n/a
126.024	3.5	controlItem	n/a	n/a	10931	1	9	31	242	3	n/a	controlFoil1
130.023	3.5	genericItem	n/a	n/a	10932	1	9	32	243	3	n/a	n/a
134.023	3.5	genericItem	1	0.303	10933	1	9	33	244	3	1	n/a
138.025	3.5	genericItem	n/a	n/a	10934	1	9	34	245	3	n/a	n/a
142.023	3.5	criticalItem	n/a	n/a	20935	2	9	35	246	3	n/a	criticalTrue
146.023	3.5	genericItem	n/a	n/a	10936	1	9	36	247	3	n/a	n/a
150.023	3.5	genericItem	n/a	n/a	10937	1	9	37	248	3	n/a	n/a
154.024	3.5	genericItem	n/a	n/a	10938	1	9	38	249	3	n/a	n/a
158.023	3.5	genericItem	n/a	n/a	10939	1	9	39	250	3	n/a	n/a
162.023	3.5	genericItem	n/a	n/a	10940	1	9	40	251	3	n/a	n/a
166.024	3.5	criticalItem	n/a	n/a	20941	2	9	41	252	3	n/a	criticalTrue
170.024	3.5	genericItem	1	0.39	10942	1	9	42	253	3	1	n/a
174.024	3.5	controlItem	n/a	n/a	10943	1	9	43	254	3	n/a	controlFoil1
178.024	3.5	genericItem	n/a	n/a	10944	1	9	44	255	3	n/a	n/a
182.024	3.5	controlItem	n/a	n/a	10945	1	9	45	256	3	n/a	controlFoil1
186.023	3.5	genericItem	n/a	n/a	10946	1	9	46	257	3	n/a	n/a
190.024	3.5	controlItem	n/a	n/a	10947	1	9	47	258	3	n/a	controlTrue
194.023	3.5	genericItem	n/a	n/a	10948	1	9	48	259	3	n/a	n/a
198.024	3.5	criticalItem	n/a	n/a	20949	2	9	49	260	3	n/a	criticalFalse
202.024	3.5	controlItem	n/a	n/a	10950	1	9	50	261	3	n/a	controlFoil1
206.023	n/a	n/a	n/a	n/a	90900	9	9	0	262	3	n/a	n/a
210.024	n/a	n/a	n/a	n/a	80400	8	4	0	263	3	n/a	n/a
214.023	3.5	genericItem	n/a	n/a	10401	1	4	1	264	3	n/a	n/a
218.024	3.5	genericItem	n/a	n/a	10402	1	4	2	265	3	n/a	n/a
222.024	3.5	genericItem	n/a	n/a	10403	1	4	3	266	3	n/a	n/a
226.093	3.5	criticalItem	n/a	n/a	20404	2	4	4	267	3	n/a	criticalTrue
230.024	3.5	genericItem	1	0.332	10405	1	4	5	268	3	1	n/a
234.027	3.5	genericItem	n/a	n/a	10406	1	4	6	269	3	n/a	n/a
238.335	3.5	criticalItem	n/a	n/a	20407	2	4	7	270	3	n/a	criticalFalse
242.023	3.5	genericItem	1	0.716	10408	1	4	8	271	3	1	n/a
246.023	3.5	controlItem	n/a	n/a	10409	1	4	9	272	3	n/a	controlFoil1
250.024	3.5	genericItem	n/a	n/a	10410	1	4	10	273	3	n/a	n/a
254.325	3.5	criticalItem	n/a	n/a	20411	2	4	11	274	3	n/a	criticalTrue
258.023	3.5	controlItem	n/a	n/a	10412	1	4	12	275	3	n/a	controlTrue
262.023	3.5	genericItem	n/a	n/a	10413	1	4	13	276	3	n/a	n/a
266.023	3.5	genericItem	n/a	n/a	10414	1	4	14	277	3	n/a	n/a
270.098	3.5	criticalItem	n/a	n/a	20415	2	4	15	278	3	n/a	criticalTrue
274.023	3.5	controlItem	n/a	n/a	10416	1	4	16	279	3	n/a	controlFoil1
278.092	3.5	criticalItem	n/a	n/a	20417	2	4	17	280	3	n/a	criticalFalse
282.023	3.5	genericItem	n/a	n/a	10418	1	4	18	281	3	n/a	n/a
286.024	3.5	criticalItem	n/a	n/a	20419	2	4	19	282	3	n/a	criticalTrue
290.023	3.5	genericItem	n/a	n/a	10420	1	4	20	283	3	n/a	n/a
294.023	3.5	genericItem	n/a	n/a	10421	1	4	21	284	3	n/a	n/a
298.023	3.5	controlItem	n/a	n/a	10422	1	4	22	285	3	n/a	controlTrue
302.023	3.5	genericItem	n/a	n/a	10423	1	4	23	286	3	n/a	n/a
306.076	3.5	criticalItem	n/a	n/a	20424	2	4	24	287	3	n/a	criticalFoil
310.023	3.5	controlItem	n/a	n/a	10425	1	4	25	288	3	n/a	controlTrue
314.024	3.5	genericItem	n/a	n/a	10426	1	4	26	289	3	n/a	n/a
318.024	3.5	genericItem	n/a	n/a	10427	1	4	27	290	3	n/a	n/a
322.023	3.5	genericItem	n/a	n/a	10428	1	4	28	291	3	n/a	n/a
326.326	3.5	criticalItem	n/a	n/a	20429	2	4	29	292	3	n/a	criticalFalse
330.023	3.5	controlItem	n/a	n/a	10430	1	4	30	293	3	n/a	controlTrue
334.023	3.5	genericItem	n/a	n/a	10431	1	4	31	294	3	n/a	n/a
338.024	3.5	genericItem	n/a	n/a	10432	1	4	32	295	3	n/a	n/a
342.024	3.5	genericItem	n/a	n/a	10433	1	4	33	296	3	n/a	n/a
346.023	3.5	genericItem	n/a	n/a	10434	1	4	34	297	3	n/a	n/a
350.024	3.5	genericItem	n/a	n/a	10435	1	4	35	298	3	n/a	n/a
354.342	3.5	criticalItem	n/a	n/a	20436	2	4	36	299	3	n/a	criticalTrue
358.023	3.5	genericItem	n/a	n/a	10437	1	4	37	300	3	n/a	n/a
362.079	3.5	criticalItem	n/a	n/a	20438	2	4	38	301	3	n/a	criticalFalse
366.024	3.5	genericItem	1	0.413	10439	1	4	39	302	3	1	n/a
370.062	3.5	criticalItem	n/a	n/a	20440	2	4	40	303	3	n/a	criticalTrue
374.024	3.5	genericItem	n/a	n/a	10441	1	4	41	304	3	n/a	n/a
378.023	3.5	controlItem	n/a	n/a	10442	1	4	42	305	3	n/a	controlTrue
382.024	3.5	controlItem	n/a	n/a	10443	1	4	43	306	3	n/a	controlTrue
386.022	3.5	controlItem	n/a	n/a	10444	1	4	44	307	3	n/a	controlTrue
390.024	3.5	genericItem	n/a	n/a	10445	1	4	45	308	3	n/a	n/a
394.024	3.5	controlItem	n/a	n/a	10446	1	4	46	309	3	n/a	controlTrue
398.023	3.5	genericItem	1	0.308	10447	1	4	47	310	3	1	n/a
402.025	3.5	controlItem	n/a	n/a	10448	1	4	48	311	3	n/a	controlTrue
406.041	3.5	criticalItem	n/a	n/a	20449	2	4	49	312	3	n/a	criticalTrue
410.024	3.5	controlItem	n/a	n/a	10450	1	4	50	313	3	n/a	controlTrue
414.023	n/a	n/a	n/a	n/a	90400	9	4	0	314	3	n/a	n/a
418.023	n/a	n/a	n/a	n/a	90000	5	0	0	315	3	n/a	n/a
