onset	duration	trial_type	response	response_time	stim_id	stim_version	stim_events	stim_slides	trial_id	run_id	stim_redcross	subsequent_response_type
2.0727	n/a	n/a	n/a	n/a	80100	8	1	0	211	3	n/a	n/a
6.0978	3.5	genericItem	n/a	n/a	10101	1	1	1	212	3	n/a	n/a
10.0585	3.5	genericItem	1	0.216	10102	1	1	2	213	3	1	n/a
14.0231	3.5	genericItem	n/a	n/a	10103	1	1	3	214	3	n/a	n/a
18.0318	3.5	controlItem	n/a	n/a	10104	1	1	4	215	3	n/a	controlTrue
22.0916	3.5	genericItem	n/a	n/a	10105	1	1	5	216	3	n/a	n/a
26.0739	3.5	genericItem	n/a	n/a	10106	1	1	6	217	3	n/a	n/a
30.04	3.5	controlItem	n/a	n/a	10107	1	1	7	218	3	n/a	controlTrue
34.0577	3.5	genericItem	n/a	n/a	10108	1	1	8	219	3	n/a	n/a
38.0954	3.5	genericItem	n/a	n/a	10109	1	1	9	220	3	n/a	n/a
42.0253	3.5	criticalItem	n/a	n/a	10110	1	1	10	221	3	n/a	criticalTrue
46.0236	3.5	genericItem	n/a	n/a	10111	1	1	11	222	3	n/a	n/a
50.0249	3.5	criticalItem	n/a	n/a	10112	1	1	12	223	3	n/a	criticalFalse
54.0734	3.5	genericItem	n/a	n/a	10113	1	1	13	224	3	n/a	n/a
58.0301	3.5	criticalItem	n/a	n/a	10114	1	1	14	225	3	n/a	criticalFalse
62.0417	3.5	genericItem	n/a	n/a	10115	1	1	15	226	3	n/a	n/a
66.0238	3.5	controlItem	n/a	n/a	10116	1	1	16	227	3	n/a	controlTrue
70.0739	3.5	criticalItem	n/a	n/a	10117	1	1	17	228	3	n/a	criticalFalse
74.0664	3.5	controlItem	n/a	n/a	10118	1	1	18	229	3	n/a	controlFoil1
78.0228	3.5	criticalItem	n/a	n/a	10119	1	1	19	230	3	n/a	criticalTrue
82.0231	3.5	genericItem	1	0.235	10120	1	1	20	231	3	1	n/a
86.1083	3.5	controlItem	n/a	n/a	10121	1	1	21	232	3	n/a	controlFoil1
90.0785	3.5	criticalItem	n/a	n/a	10122	1	1	22	233	3	n/a	criticalFoil
94.0784	3.5	controlItem	n/a	n/a	10123	1	1	23	234	3	n/a	controlTrue
98.0228	3.5	controlItem	n/a	n/a	10124	1	1	24	235	3	n/a	controlFoil1
102.069	3.5	controlItem	n/a	n/a	10125	1	1	25	236	3	n/a	controlFoil1
106.081	3.5	criticalItem	n/a	n/a	10126	1	1	26	237	3	n/a	criticalTrue
110.024	3.5	genericItem	n/a	n/a	10127	1	1	27	238	3	n/a	n/a
114.024	3.5	criticalItem	n/a	n/a	10128	1	1	28	239	3	n/a	criticalTrue
118.044	3.5	genericItem	n/a	n/a	10129	1	1	29	240	3	n/a	n/a
122.036	3.5	genericItem	n/a	n/a	10130	1	1	30	241	3	n/a	n/a
126.074	3.5	criticalItem	n/a	n/a	10131	1	1	31	242	3	n/a	criticalTrue
130.023	3.5	controlItem	n/a	n/a	10132	1	1	32	243	3	n/a	controlFoil1
134.076	3.5	genericItem	n/a	n/a	10133	1	1	33	244	3	n/a	n/a
138.023	3.5	genericItem	n/a	n/a	10134	1	1	34	245	3	n/a	n/a
142.076	3.5	genericItem	n/a	n/a	10135	1	1	35	246	3	n/a	n/a
146.075	3.5	criticalItem	n/a	n/a	10136	1	1	36	247	3	n/a	criticalFalse
150.063	3.5	genericItem	n/a	n/a	10137	1	1	37	248	3	n/a	n/a
154.024	3.5	genericItem	n/a	n/a	10138	1	1	38	249	3	n/a	n/a
158.023	3.5	genericItem	n/a	n/a	10139	1	1	39	250	3	n/a	n/a
162.024	3.5	controlItem	n/a	n/a	10140	1	1	40	251	3	n/a	controlFoil1
166.024	3.5	criticalItem	n/a	n/a	10141	1	1	41	252	3	n/a	criticalFalse
170.023	3.5	genericItem	n/a	n/a	10142	1	1	42	253	3	n/a	n/a
174.058	3.5	genericItem	n/a	n/a	10143	1	1	43	254	3	n/a	n/a
178.057	3.5	genericItem	n/a	n/a	10144	1	1	44	255	3	n/a	n/a
182.023	3.5	genericItem	n/a	n/a	10145	1	1	45	256	3	n/a	n/a
186.023	3.5	controlItem	n/a	n/a	10146	1	1	46	257	3	n/a	controlFoil2
190.023	3.5	genericItem	n/a	n/a	10147	1	1	47	258	3	n/a	n/a
194.023	3.5	genericItem	n/a	n/a	10148	1	1	48	259	3	n/a	n/a
198.023	3.5	controlItem	n/a	n/a	10149	1	1	49	260	3	n/a	controlFoil1
202.024	3.5	criticalItem	n/a	n/a	10150	1	1	50	261	3	n/a	criticalFalse
206.075	n/a	n/a	n/a	n/a	90100	9	1	0	262	3	n/a	n/a
210.023	n/a	n/a	n/a	n/a	81000	8	10	0	263	3	n/a	n/a
214.023	3.5	genericItem	n/a	n/a	11001	1	10	1	264	3	n/a	n/a
218.024	3.5	genericItem	n/a	n/a	11002	1	10	2	265	3	n/a	n/a
222.071	3.5	criticalItem	n/a	n/a	21003	2	10	3	266	3	n/a	criticalTrue
226.024	3.5	genericItem	n/a	n/a	11004	1	10	4	267	3	n/a	n/a
230.076	3.5	criticalItem	n/a	n/a	21005	2	10	5	268	3	n/a	criticalFoil
234.058	3.5	genericItem	1	0.392	11006	1	10	6	269	3	1	n/a
238.081	3.5	genericItem	n/a	n/a	11007	1	10	7	270	3	n/a	n/a
242.077	3.5	criticalItem	n/a	n/a	21008	2	10	8	271	3	n/a	criticalTrue
246.024	3.5	genericItem	n/a	n/a	11009	1	10	9	272	3	n/a	n/a
250.024	3.5	criticalItem	n/a	n/a	21010	2	10	10	273	3	n/a	criticalTrue
254.073	3.5	genericItem	n/a	n/a	11011	1	10	11	274	3	n/a	n/a
258.024	3.5	genericItem	n/a	n/a	11012	1	10	12	275	3	n/a	n/a
262.023	3.5	genericItem	n/a	n/a	11013	1	10	13	276	3	n/a	n/a
266.022	3.5	genericItem	n/a	n/a	11014	1	10	14	277	3	n/a	n/a
270.025	3.5	criticalItem	n/a	n/a	21015	2	10	15	278	3	n/a	criticalFalse
274.057	3.5	genericItem	n/a	n/a	11016	1	10	16	279	3	n/a	n/a
278.074	3.5	controlItem	n/a	n/a	11017	1	10	17	280	3	n/a	controlFoil1
282.022	3.5	criticalItem	n/a	n/a	21018	2	10	18	281	3	n/a	criticalTrue
286.023	3.5	controlItem	n/a	n/a	11019	1	10	19	282	3	n/a	controlTrue
290.023	3.5	criticalItem	n/a	n/a	21020	2	10	20	283	3	n/a	criticalTrue
294.023	3.5	controlItem	n/a	n/a	11021	1	10	21	284	3	n/a	controlTrue
298.023	3.5	genericItem	n/a	n/a	11022	1	10	22	285	3	n/a	n/a
302.024	3.5	criticalItem	n/a	n/a	21023	2	10	23	286	3	n/a	criticalFalse
306.024	3.5	genericItem	n/a	n/a	11024	1	10	24	287	3	n/a	n/a
310.082	3.5	genericItem	n/a	n/a	11025	1	10	25	288	3	n/a	n/a
314.105	3.5	criticalItem	n/a	n/a	21026	2	10	26	289	3	n/a	criticalFalse
318.087	3.5	genericItem	n/a	n/a	11027	1	10	27	290	3	n/a	n/a
322.075	3.5	controlItem	n/a	n/a	11028	1	10	28	291	3	n/a	controlTrue
326.024	3.5	controlItem	n/a	n/a	11029	1	10	29	292	3	n/a	controlTrue
330.023	3.5	genericItem	n/a	n/a	11030	1	10	30	293	3	n/a	n/a
334.078	3.5	controlItem	n/a	n/a	11031	1	10	31	294	3	n/a	controlFoil2
338.023	3.5	genericItem	n/a	n/a	11032	1	10	32	295	3	n/a	n/a
342.024	3.5	criticalItem	n/a	n/a	21033	2	10	33	296	3	n/a	criticalFoil
346.025	3.5	genericItem	n/a	n/a	11034	1	10	34	297	3	n/a	n/a
350.024	3.5	criticalItem	n/a	n/a	21035	2	10	35	298	3	n/a	criticalFalse
354.023	3.5	genericItem	n/a	n/a	11036	1	10	36	299	3	n/a	n/a
358.024	3.5	controlItem	n/a	n/a	11037	1	10	37	300	3	n/a	controlTrue
362.074	3.5	controlItem	n/a	n/a	11038	1	10	38	301	3	n/a	controlTrue
366.124	3.5	controlItem	n/a	n/a	11039	1	10	39	302	3	n/a	controlTrue
370.074	3.5	controlItem	n/a	n/a	11040	1	10	40	303	3	n/a	controlFoil1
374.023	3.5	genericItem	n/a	n/a	11041	1	10	41	304	3	n/a	n/a
378.024	3.5	genericItem	n/a	n/a	11042	1	10	42	305	3	n/a	n/a
382.025	3.5	genericItem	1	0.221	11043	1	10	43	306	3	1	n/a
386.025	3.5	genericItem	n/a	n/a	11044	1	10	44	307	3	n/a	n/a
390.11	3.5	criticalItem	n/a	n/a	21045	2	10	45	308	3	n/a	criticalFalse
394.024	3.5	controlItem	n/a	n/a	11046	1	10	46	309	3	n/a	controlTrue
398.075	3.5	genericItem	n/a	n/a	11047	1	10	47	310	3	n/a	n/a
402.098	3.5	genericItem	1	0.23	11048	1	10	48	311	3	1	n/a
406.058	3.5	controlItem	n/a	n/a	11049	1	10	49	312	3	n/a	controlTrue
410.074	3.5	genericItem	n/a	n/a	11050	1	10	50	313	3	n/a	n/a
414.122	n/a	n/a	n/a	n/a	91000	9	10	0	314	3	n/a	n/a
418.022	n/a	n/a	n/a	n/a	90000	5	0	0	315	3	n/a	n/a
