onset	duration	trial_type	response	response_time	stim_id	stim_version	stim_events	stim_slides	trial_id	run_id	stim_redcross	subsequent_response_type
2.0295	n/a	n/a	n/a	n/a	80100	8	1	0	316	4	n/a	n/a
6.0231	3.5	genericItem	n/a	n/a	10101	1	1	1	317	4	n/a	n/a
10.0243	3.5	genericItem	n/a	n/a	10102	1	1	2	318	4	n/a	n/a
14.0223	3.5	genericItem	n/a	n/a	10103	1	1	3	319	4	n/a	n/a
18.0237	3.5	controlItem	n/a	n/a	10104	1	1	4	320	4	n/a	controlTrue
22.0239	3.5	genericItem	1	0.326	10105	1	1	5	321	4	1	n/a
26.0234	3.5	genericItem	n/a	n/a	10106	1	1	6	322	4	n/a	n/a
30.0231	3.5	controlItem	n/a	n/a	10107	1	1	7	323	4	n/a	controlTrue
34.0235	3.5	genericItem	n/a	n/a	10108	1	1	8	324	4	n/a	n/a
38.0228	3.5	genericItem	n/a	n/a	10109	1	1	9	325	4	n/a	n/a
42.0422	3.5	criticalItem	n/a	n/a	20110	2	1	10	326	4	n/a	criticalTrue
46.0251	3.5	genericItem	n/a	n/a	10111	1	1	11	327	4	n/a	n/a
50.0366	3.5	criticalItem	n/a	n/a	20112	2	1	12	328	4	n/a	criticalFoil
54.023	3.5	genericItem	n/a	n/a	10113	1	1	13	329	4	n/a	n/a
58.037	3.5	criticalItem	n/a	n/a	20114	2	1	14	330	4	n/a	criticalFalse
62.0235	3.5	genericItem	n/a	n/a	10115	1	1	15	331	4	n/a	n/a
66.0239	3.5	controlItem	n/a	n/a	10116	1	1	16	332	4	n/a	controlTrue
70.0358	3.5	criticalItem	n/a	n/a	20117	2	1	17	333	4	n/a	criticalFalse
74.0243	3.5	controlItem	n/a	n/a	10118	1	1	18	334	4	n/a	controlFoil1
78.035	3.5	criticalItem	n/a	n/a	20119	2	1	19	335	4	n/a	criticalFalse
82.0237	3.5	genericItem	n/a	n/a	10120	1	1	20	336	4	n/a	n/a
86.0234	3.5	controlItem	n/a	n/a	10121	1	1	21	337	4	n/a	controlFoil1
90.0349	3.5	criticalItem	n/a	n/a	20122	2	1	22	338	4	n/a	criticalFalse
94.0246	3.5	controlItem	n/a	n/a	10123	1	1	23	339	4	n/a	controlFoil1
98.0233	3.5	controlItem	n/a	n/a	10124	1	1	24	340	4	n/a	controlTrue
102.025	3.5	controlItem	n/a	n/a	10125	1	1	25	341	4	n/a	controlTrue
106.038	3.5	criticalItem	n/a	n/a	20126	2	1	26	342	4	n/a	criticalTrue
110.034	3.5	genericItem	n/a	n/a	10127	1	1	27	343	4	n/a	n/a
114.038	3.5	criticalItem	n/a	n/a	20128	2	1	28	344	4	n/a	criticalFalse
118.034	3.5	genericItem	n/a	n/a	10129	1	1	29	345	4	n/a	n/a
122.042	3.5	genericItem	1	0.309	10130	1	1	30	346	4	1	n/a
126.038	3.5	criticalItem	n/a	n/a	20131	2	1	31	347	4	n/a	criticalTrue
130.033	3.5	controlItem	n/a	n/a	10132	1	1	32	348	4	n/a	controlTrue
134.033	3.5	genericItem	n/a	n/a	10133	1	1	33	349	4	n/a	n/a
138.033	3.5	genericItem	n/a	n/a	10134	1	1	34	350	4	n/a	n/a
142.042	3.5	genericItem	n/a	n/a	10135	1	1	35	351	4	n/a	n/a
146.035	3.5	criticalItem	n/a	n/a	20136	2	1	36	352	4	n/a	criticalFalse
150.042	3.5	genericItem	n/a	n/a	10137	1	1	37	353	4	n/a	n/a
154.024	3.5	genericItem	n/a	n/a	10138	1	1	38	354	4	n/a	n/a
158.024	3.5	genericItem	n/a	n/a	10139	1	1	39	355	4	n/a	n/a
162.024	3.5	controlItem	n/a	n/a	10140	1	1	40	356	4	n/a	controlTrue
166.034	3.5	criticalItem	n/a	n/a	20141	2	1	41	357	4	n/a	criticalFalse
170.023	3.5	genericItem	n/a	n/a	10142	1	1	42	358	4	n/a	n/a
174.023	3.5	genericItem	n/a	n/a	10143	1	1	43	359	4	n/a	n/a
178.024	3.5	genericItem	n/a	n/a	10144	1	1	44	360	4	n/a	n/a
182.023	3.5	genericItem	n/a	n/a	10145	1	1	45	361	4	n/a	n/a
186.023	3.5	controlItem	n/a	n/a	10146	1	1	46	362	4	n/a	controlTrue
190.023	3.5	genericItem	n/a	n/a	10147	1	1	47	363	4	n/a	n/a
194.024	3.5	genericItem	n/a	n/a	10148	1	1	48	364	4	n/a	n/a
198.024	3.5	controlItem	n/a	n/a	10149	1	1	49	365	4	n/a	controlTrue
202.034	3.5	criticalItem	n/a	n/a	20150	2	1	50	366	4	n/a	criticalTrue
206.024	n/a	n/a	n/a	n/a	90100	9	1	0	367	4	n/a	n/a
210.035	n/a	n/a	n/a	n/a	80700	8	7	0	368	4	n/a	n/a
214.042	3.5	genericItem	n/a	n/a	10701	1	7	1	369	4	n/a	n/a
218.041	3.5	genericItem	n/a	n/a	10702	1	7	2	370	4	n/a	n/a
222.04	3.5	controlItem	n/a	n/a	10703	1	7	3	371	4	n/a	controlTrue
226.034	3.5	criticalItem	n/a	n/a	10704	1	7	4	372	4	n/a	criticalTrue
230.039	3.5	controlItem	n/a	n/a	10705	1	7	5	373	4	n/a	controlTrue
234.039	3.5	genericItem	n/a	n/a	10706	1	7	6	374	4	n/a	n/a
238.036	3.5	controlItem	n/a	n/a	10707	1	7	7	375	4	n/a	controlTrue
242.042	3.5	controlItem	n/a	n/a	10708	1	7	8	376	4	n/a	controlFoil2
246.043	3.5	criticalItem	n/a	n/a	10709	1	7	9	377	4	n/a	criticalFoil
250.034	3.5	genericItem	1	0.358	10710	1	7	10	378	4	1	n/a
254.042	3.5	controlItem	n/a	n/a	10711	1	7	11	379	4	n/a	controlTrue
258.04	3.5	criticalItem	n/a	n/a	10712	1	7	12	380	4	n/a	criticalFoil
262.024	3.5	genericItem	n/a	n/a	10713	1	7	13	381	4	n/a	n/a
266.023	3.5	controlItem	n/a	n/a	10714	1	7	14	382	4	n/a	controlTrue
270.024	3.5	genericItem	n/a	n/a	10715	1	7	15	383	4	n/a	n/a
274.023	3.5	genericItem	n/a	n/a	10716	1	7	16	384	4	n/a	n/a
278.023	3.5	genericItem	n/a	n/a	10717	1	7	17	385	4	n/a	n/a
282.023	3.5	controlItem	n/a	n/a	10718	1	7	18	386	4	n/a	controlTrue
286.025	3.5	criticalItem	n/a	n/a	10719	1	7	19	387	4	n/a	criticalFalse
290.023	3.5	controlItem	n/a	n/a	10720	1	7	20	388	4	n/a	controlTrue
294.024	3.5	criticalItem	n/a	n/a	10721	1	7	21	389	4	n/a	criticalFalse
298.024	3.5	genericItem	n/a	n/a	10722	1	7	22	390	4	n/a	n/a
302.023	3.5	genericItem	n/a	n/a	10723	1	7	23	391	4	n/a	n/a
306.024	3.5	genericItem	n/a	n/a	10724	1	7	24	392	4	n/a	n/a
310.023	3.5	genericItem	n/a	n/a	10725	1	7	25	393	4	n/a	n/a
314.024	3.5	criticalItem	n/a	n/a	10726	1	7	26	394	4	n/a	criticalFalse
318.024	3.5	genericItem	n/a	n/a	10727	1	7	27	395	4	n/a	n/a
322.023	3.5	controlItem	n/a	n/a	10728	1	7	28	396	4	n/a	n/a
326.024	3.5	criticalItem	n/a	n/a	10729	1	7	29	397	4	n/a	criticalTrue
330.024	3.5	genericItem	n/a	n/a	10730	1	7	30	398	4	n/a	n/a
334.024	3.5	genericItem	n/a	n/a	10731	1	7	31	399	4	n/a	n/a
338.025	3.5	genericItem	n/a	n/a	10732	1	7	32	400	4	n/a	n/a
342.024	3.5	genericItem	n/a	n/a	10733	1	7	33	401	4	n/a	n/a
346.043	3.5	controlItem	n/a	n/a	10734	1	7	34	402	4	n/a	controlTrue
350.036	3.5	criticalItem	n/a	n/a	10735	1	7	35	403	4	n/a	criticalFalse
354.024	3.5	genericItem	n/a	n/a	10736	1	7	36	404	4	n/a	n/a
358.024	3.5	genericItem	n/a	n/a	10737	1	7	37	405	4	n/a	n/a
362.023	3.5	genericItem	1	0.304	10738	1	7	38	406	4	1	n/a
366.037	3.5	criticalItem	n/a	n/a	10739	1	7	39	407	4	n/a	criticalFalse
370.024	3.5	controlItem	n/a	n/a	10740	1	7	40	408	4	n/a	controlFoil1
374.023	3.5	genericItem	n/a	n/a	10741	1	7	41	409	4	n/a	n/a
378.024	3.5	genericItem	n/a	n/a	10742	1	7	42	410	4	n/a	n/a
382.024	3.5	genericItem	n/a	n/a	10743	1	7	43	411	4	n/a	n/a
386.036	3.5	criticalItem	n/a	n/a	10744	1	7	44	412	4	n/a	criticalFalse
390.024	3.5	genericItem	n/a	n/a	10745	1	7	45	413	4	n/a	n/a
394.041	3.5	criticalItem	n/a	n/a	10746	1	7	46	414	4	n/a	criticalTrue
398.023	3.5	genericItem	n/a	n/a	10747	1	7	47	415	4	n/a	n/a
402.024	3.5	genericItem	n/a	n/a	10748	1	7	48	416	4	n/a	n/a
406.038	3.5	criticalItem	n/a	n/a	10749	1	7	49	417	4	n/a	criticalTrue
410.023	3.5	controlItem	n/a	n/a	10750	1	7	50	418	4	n/a	controlTrue
414.023	n/a	n/a	n/a	n/a	90700	9	7	0	419	4	n/a	n/a
418.024	n/a	n/a	n/a	n/a	90000	5	0	0	420	4	n/a	n/a
