onset	duration	trial_type	response	response_time	stim_id	stim_events	stim_slides	trial_id	run_id	stim_type	response_type
2.00649	n/a	n/a	n/a	n/a	80300	3	0	1	1	8	n/a
12.0061	3.5	controlItem	n/a	n/a	10342	3	42	2	1	1	n/a
15.49	3.0	controlItem	n/a	n/a	40342	3	42	3	1	0	n/a
18.4897	3.0	controlItem	Foil2	0.15	40342	3	42	4	1	4	controlFoil2
22.0046	3.5	controlItem	n/a	n/a	10345	3	45	5	1	1	n/a
25.4891	3.0	controlItem	ForbiddenKey	2.161	70345	3	45	6	1	0	n/a
28.4887	3.0	controlItem	Foil1	0.186	70345	3	45	7	1	7	controlFoil1
32.0037	3.5	criticalItem	n/a	n/a	10341	3	41	8	1	1	n/a
35.487	3.0	criticalItem	ForbiddenKey	2.459	60341	3	41	9	1	0	n/a
38.487	3.0	criticalItem	Foil	0.342	60341	3	41	10	1	6	criticalFoil
42.003	3.5	criticalItem	n/a	n/a	10319	3	19	11	1	1	n/a
45.4861	3.0	criticalItem	n/a	n/a	70319	3	19	12	1	0	n/a
48.4857	3.0	criticalItem	False	0.873	70319	3	19	13	1	7	criticalFalse
52.0031	3.5	controlItem	n/a	n/a	10317	3	17	14	1	1	n/a
55.4858	3.0	controlItem	n/a	n/a	40317	3	17	15	1	0	n/a
58.4846	3.0	controlItem	True	1.569	40317	3	17	16	1	4	controlTrue
62.0016	3.5	controlItem	n/a	n/a	10325	3	25	17	1	1	n/a
65.4837	3.0	controlItem	n/a	n/a	70325	3	25	18	1	0	n/a
68.4846	3.0	controlItem	True	0.878	70325	3	25	19	1	7	controlTrue
72.0011	3.5	controlItem	n/a	n/a	10320	3	20	20	1	1	n/a
75.4829	3.0	controlItem	n/a	n/a	30320	3	20	21	1	0	n/a
78.4827	3.0	controlItem	True	1.752	30320	3	20	22	1	3	controlTrue
82	3.5	criticalItem	n/a	n/a	10316	3	16	23	1	1	n/a
85.483	3.0	criticalItem	n/a	n/a	50316	3	16	24	1	0	n/a
88.4819	3.0	criticalItem	True	1.388	50316	3	16	25	1	5	criticalTrue
91.9994	3.5	criticalItem	n/a	n/a	10324	3	24	26	1	1	n/a
95.4812	3.0	criticalItem	n/a	n/a	20324	3	24	27	1	0	n/a
98.4803	3.0	criticalItem	False	0.656	20324	3	24	28	1	2	criticalFalse
102.013	3.5	controlItem	n/a	n/a	10348	3	48	29	1	1	n/a
105.497	3.0	controlItem	n/a	n/a	40348	3	48	30	1	0	n/a
108.497	3.0	controlItem	True	0.763	40348	3	48	31	1	4	controlTrue
112.013	3.5	criticalItem	n/a	n/a	10336	3	36	32	1	1	n/a
115.496	3.0	criticalItem	n/a	n/a	30336	3	36	33	1	0	n/a
118.496	3.0	criticalItem	Foil	0.984	30336	3	36	34	1	3	criticalFoil
122.011	3.5	criticalItem	n/a	n/a	10332	3	32	35	1	1	n/a
125.494	3.0	criticalItem	n/a	n/a	60332	3	32	36	1	0	n/a
128.495	3.0	criticalItem	True	0.695	60332	3	32	37	1	6	criticalTrue
132.01	3.5	controlItem	n/a	n/a	10329	3	29	38	1	1	n/a
135.494	3.0	controlItem	n/a	n/a	20329	3	29	39	1	0	n/a
138.494	3.0	controlItem	True	0.635	20329	3	29	40	1	2	controlTrue
142.01	3.5	criticalItem	n/a	n/a	10330	3	30	41	1	1	n/a
145.493	3.0	criticalItem	n/a	n/a	50330	3	30	42	1	0	n/a
148.492	3.0	criticalItem	False	1.227	50330	3	30	43	1	5	criticalFalse
152.008	3.5	controlItem	n/a	n/a	10313	3	13	44	1	1	n/a
155.492	3.0	controlItem	n/a	n/a	60313	3	13	45	1	0	n/a
158.492	3.0	controlItem	True	1.095	60313	3	13	46	1	6	controlTrue
162.009	3.5	criticalItem	n/a	n/a	10305	3	5	47	1	1	n/a
165.491	3.0	criticalItem	n/a	n/a	20305	3	5	48	1	0	n/a
168.49	3.0	criticalItem	True	1.45	20305	3	5	49	1	2	criticalTrue
172.007	3.5	controlItem	n/a	n/a	10331	3	31	50	1	1	n/a
175.49	3.0	controlItem	n/a	n/a	20331	3	31	51	1	0	n/a
178.49	3.0	controlItem	Foil1	0.69	20331	3	31	52	1	2	controlFoil1
182.005	3.5	controlItem	n/a	n/a	10350	3	50	53	1	1	n/a
185.488	3.0	controlItem	ForbiddenKey	2.448	70350	3	50	54	1	0	n/a
188.489	3.0	controlItem	True	0.739	70350	3	50	55	1	7	controlTrue
192.004	3.5	criticalItem	n/a	n/a	10322	3	22	56	1	1	n/a
195.488	3.0	criticalItem	n/a	n/a	40322	3	22	57	1	0	n/a
198.488	3.0	criticalItem	True	1.628	40322	3	22	58	1	4	criticalTrue
202.003	3.5	controlItem	n/a	n/a	10303	3	3	59	1	1	n/a
205.487	3.0	controlItem	n/a	n/a	50303	3	3	60	1	0	n/a
208.486	3.0	controlItem	True	0.67	50303	3	3	61	1	5	controlTrue
212.002	3.5	criticalItem	n/a	n/a	10344	3	44	62	1	1	n/a
215.486	3.0	criticalItem	n/a	n/a	40344	3	44	63	1	0	n/a
218.486	3.0	criticalItem	False	0.972	40344	3	44	64	1	4	criticalFalse
222.001	3.5	criticalItem	n/a	n/a	10347	3	47	65	1	1	n/a
225.485	3.0	criticalItem	n/a	n/a	20347	3	47	66	1	0	n/a
228.484	3.0	criticalItem	False	0.937	20347	3	47	67	1	2	criticalFalse
232	3.5	controlItem	n/a	n/a	10309	3	9	68	1	1	n/a
235.485	3.0	controlItem	n/a	n/a	20309	3	9	69	1	0	n/a
238.485	3.0	controlItem	True	0.858	20309	3	9	70	1	2	controlTrue
242.001	3.5	criticalItem	n/a	n/a	10327	3	27	71	1	1	n/a
245.482	3.0	criticalItem	n/a	n/a	30327	3	27	72	1	0	n/a
248.483	3.0	criticalItem	True	0.984	30327	3	27	73	1	3	criticalTrue
252.015	n/a	n/a	n/a	n/a	90300	3	0	74	1	9	n/a
256.015	n/a	n/a	n/a	n/a	80100	1	0	75	1	8	n/a
266.014	3.5	controlItem	n/a	n/a	10149	1	49	76	1	1	n/a
269.497	3.0	controlItem	n/a	n/a	40149	1	49	77	1	0	n/a
272.497	3.0	controlItem	True	0.857	40149	1	49	78	1	4	controlTrue
276.013	3.5	criticalItem	n/a	n/a	10110	1	10	79	1	1	n/a
279.496	3.0	criticalItem	n/a	n/a	70110	1	10	80	1	0	n/a
282.497	3.0	criticalItem	Foil	2.576	70110	1	10	81	1	7	criticalFoil
286.011	3.5	controlItem	n/a	n/a	10132	1	32	82	1	1	n/a
289.496	3.0	controlItem	n/a	n/a	50132	1	32	83	1	0	n/a
292.495	3.0	controlItem	Foil2	2.835	50132	1	32	84	1	5	controlFoil2
296.01	3.5	criticalItem	n/a	n/a	10141	1	41	85	1	1	n/a
299.493	3.0	criticalItem	n/a	n/a	30141	1	41	86	1	0	n/a
302.494	3.0	criticalItem	True	1.076	30141	1	41	87	1	3	criticalTrue
306.009	3.5	criticalItem	n/a	n/a	10131	1	31	88	1	1	n/a
309.494	3.0	criticalItem	n/a	n/a	70131	1	31	89	1	0	n/a
312.495	3.0	criticalItem	True	0.908	70131	1	31	90	1	7	criticalTrue
316.009	3.5	controlItem	n/a	n/a	10121	1	21	91	1	1	n/a
319.493	3.0	controlItem	n/a	n/a	40121	1	21	92	1	0	n/a
322.492	3.0	controlItem	Foil2	1.293	40121	1	21	93	1	4	controlFoil2
326.009	3.5	controlItem	n/a	n/a	10146	1	46	94	1	1	n/a
329.491	3.0	controlItem	n/a	n/a	20146	1	46	95	1	0	n/a
332.491	3.0	controlItem	Foil2	0.671	20146	1	46	96	1	2	controlFoil2
336.008	3.5	criticalItem	n/a	n/a	10114	1	14	97	1	1	n/a
339.49	3.0	criticalItem	n/a	n/a	40114	1	14	98	1	0	n/a
342.49	3.0	criticalItem	True	0.636	40114	1	14	99	1	4	criticalTrue
346.005	3.5	controlItem	n/a	n/a	10123	1	23	100	1	1	n/a
349.489	3.0	controlItem	n/a	n/a	50123	1	23	101	1	0	n/a
352.49	3.0	controlItem	True	0.961	50123	1	23	102	1	5	controlTrue
356.004	3.5	controlItem	n/a	n/a	10104	1	4	103	1	1	n/a
359.489	3.0	controlItem	n/a	n/a	60104	1	4	104	1	0	n/a
362.488	3.0	controlItem	Foil1	1.55	60104	1	4	105	1	6	controlFoil1
366.003	3.5	criticalItem	n/a	n/a	10112	1	12	106	1	1	n/a
369.487	3.0	criticalItem	n/a	n/a	30112	1	12	107	1	0	n/a
372.487	3.0	criticalItem	False	0.713	30112	1	12	108	1	3	criticalFalse
376.003	3.5	criticalItem	n/a	n/a	10117	1	17	109	1	1	n/a
379.486	3.0	criticalItem	n/a	n/a	50117	1	17	110	1	0	n/a
382.486	3.0	criticalItem	True	1.088	50117	1	17	111	1	5	criticalTrue
386.001	3.5	criticalItem	n/a	n/a	10122	1	22	112	1	1	n/a
389.485	3.0	criticalItem	n/a	n/a	60122	1	22	113	1	0	n/a
392.485	3.0	criticalItem	n/a	n/a	60122	1	22	114	1	6	n/a
396.001	3.5	criticalItem	n/a	n/a	10126	1	26	115	1	1	n/a
399.484	3.0	criticalItem	n/a	n/a	50126	1	26	116	1	0	n/a
402.484	3.0	criticalItem	True	0.614	50126	1	26	117	1	5	criticalTrue
406	3.5	controlItem	n/a	n/a	10124	1	24	118	1	1	n/a
409.483	3.0	controlItem	n/a	n/a	60124	1	24	119	1	0	n/a
412.484	3.0	controlItem	Foil1	0.893	60124	1	24	120	1	6	controlFoil1
416	3.5	criticalItem	n/a	n/a	10136	1	36	121	1	1	n/a
419.482	3.0	criticalItem	n/a	n/a	30136	1	36	122	1	0	n/a
422.482	3.0	criticalItem	False	1.652	30136	1	36	123	1	3	criticalFalse
426.014	3.5	criticalItem	n/a	n/a	10150	1	50	124	1	1	n/a
429.499	3.0	criticalItem	n/a	n/a	30150	1	50	125	1	0	n/a
432.497	3.0	criticalItem	False	1.394	30150	1	50	126	1	3	criticalFalse
436.013	3.5	controlItem	n/a	n/a	10118	1	18	127	1	1	n/a
439.497	3.0	controlItem	n/a	n/a	20118	1	18	128	1	0	n/a
442.497	3.0	controlItem	True	0.563	20118	1	18	129	1	2	controlTrue
446.012	3.5	controlItem	n/a	n/a	10107	1	7	130	1	1	n/a
449.496	3.0	controlItem	n/a	n/a	60107	1	7	131	1	0	n/a
452.495	3.0	controlItem	True	0.629	60107	1	7	132	1	6	controlTrue
456.011	3.5	criticalItem	n/a	n/a	10119	1	19	133	1	1	n/a
459.496	3.0	criticalItem	n/a	n/a	20119	1	19	134	1	0	n/a
462.494	3.0	criticalItem	False	1.154	20119	1	19	135	1	2	criticalFalse
466.011	3.5	criticalItem	n/a	n/a	10128	1	28	136	1	1	n/a
469.494	3.0	criticalItem	n/a	n/a	60128	1	28	137	1	0	n/a
472.493	3.0	criticalItem	False	0.724	60128	1	28	138	1	6	criticalFalse
476.011	3.5	controlItem	n/a	n/a	10116	1	16	139	1	1	n/a
479.493	3.0	controlItem	n/a	n/a	20116	1	16	140	1	0	n/a
482.492	3.0	controlItem	True	0.603	20116	1	16	141	1	2	controlTrue
486.008	3.5	controlItem	n/a	n/a	10125	1	25	142	1	1	n/a
489.492	3.0	controlItem	n/a	n/a	30125	1	25	143	1	0	n/a
492.491	3.0	controlItem	True	0.598	30125	1	25	144	1	3	controlTrue
496.009	3.5	controlItem	n/a	n/a	10140	1	40	145	1	1	n/a
499.491	3.0	controlItem	n/a	n/a	20140	1	40	146	1	0	n/a
502.49	3.0	controlItem	True	0.794	20140	1	40	147	1	2	controlTrue
506.008	n/a	n/a	n/a	n/a	90100	1	0	148	1	9	n/a
