onset	duration	trial_type	response	response_time	stim_id	stim_version	stim_events	stim_slides	trial_id	run_id	stim_redcross	subsequent_response_type
2.0837	n/a	n/a	n/a	n/a	80200	8	2	0	316	4	n/a	n/a
6.1071	3.5	genericItem	n/a	n/a	10201	1	2	1	317	4	n/a	n/a
10.0649	3.5	genericItem	n/a	n/a	10202	1	2	2	318	4	n/a	n/a
14.0857	3.5	genericItem	n/a	n/a	10203	1	2	3	319	4	n/a	n/a
18.0776	3.5	controlItem	n/a	n/a	10204	1	2	4	320	4	n/a	controlTrue
22.062	3.5	controlItem	n/a	n/a	10205	1	2	5	321	4	n/a	controlTrue
26.0895	3.5	genericItem	n/a	n/a	10206	1	2	6	322	4	n/a	n/a
30.0805	3.5	controlItem	n/a	n/a	10207	1	2	7	323	4	n/a	controlTrue
34.0973	3.5	genericItem	n/a	n/a	10208	1	2	8	324	4	n/a	n/a
38.0856	3.5	genericItem	n/a	n/a	10209	1	2	9	325	4	n/a	n/a
42.0297	3.5	genericItem	n/a	n/a	10210	1	2	10	326	4	n/a	n/a
46.0549	3.5	genericItem	n/a	n/a	10211	1	2	11	327	4	n/a	n/a
50.0831	3.5	genericItem	n/a	n/a	10212	1	2	12	328	4	n/a	n/a
54.0789	3.5	genericItem	1	0.256	10213	1	2	13	329	4	1	n/a
58.0676	3.5	criticalItem	n/a	n/a	10214	1	2	14	330	4	n/a	criticalTrue
62.0891	3.5	genericItem	n/a	n/a	10215	1	2	15	331	4	n/a	n/a
66.105	3.5	genericItem	n/a	n/a	10216	1	2	16	332	4	n/a	n/a
70.0676	3.5	controlItem	n/a	n/a	10217	1	2	17	333	4	n/a	controlFoil1
74.0466	3.5	genericItem	n/a	n/a	10218	1	2	18	334	4	n/a	n/a
78.081	3.5	criticalItem	n/a	n/a	10219	1	2	19	335	4	n/a	criticalFalse
82.0296	3.5	genericItem	1	0.23	10220	1	2	20	336	4	1	n/a
86.0815	3.5	genericItem	n/a	n/a	10221	1	2	21	337	4	n/a	n/a
90.0642	3.5	controlItem	n/a	n/a	10222	1	2	22	338	4	n/a	controlTrue
94.0917	3.5	criticalItem	n/a	n/a	10223	1	2	23	339	4	n/a	criticalFalse
98.0544	3.5	genericItem	n/a	n/a	10224	1	2	24	340	4	n/a	n/a
102.076	3.5	criticalItem	n/a	n/a	10225	1	2	25	341	4	n/a	criticalTrue
106.045	3.5	genericItem	1	0.184	10226	1	2	26	342	4	1	n/a
110.064	3.5	genericItem	n/a	n/a	10227	1	2	27	343	4	n/a	n/a
114.103	3.5	criticalItem	n/a	n/a	10228	1	2	28	344	4	n/a	criticalFalse
118.085	3.5	genericItem	n/a	n/a	10229	1	2	29	345	4	n/a	n/a
122.088	3.5	controlItem	n/a	n/a	10230	1	2	30	346	4	n/a	controlTrue
126.091	3.5	criticalItem	n/a	n/a	10231	1	2	31	347	4	n/a	criticalFalse
130.083	3.5	controlItem	n/a	n/a	10232	1	2	32	348	4	n/a	controlFoil1
134.077	3.5	genericItem	n/a	n/a	10233	1	2	33	349	4	n/a	n/a
138.105	3.5	criticalItem	n/a	n/a	10234	1	2	34	350	4	n/a	criticalTrue
142.061	3.5	controlItem	n/a	n/a	10235	1	2	35	351	4	n/a	controlFoil1
146.085	3.5	criticalItem	n/a	n/a	10236	1	2	36	352	4	n/a	criticalFalse
150.064	3.5	controlItem	n/a	n/a	10237	1	2	37	353	4	n/a	controlFoil2
154.069	3.5	criticalItem	n/a	n/a	10238	1	2	38	354	4	n/a	criticalFalse
158.079	3.5	genericItem	n/a	n/a	10239	1	2	39	355	4	n/a	n/a
162.08	3.5	genericItem	1	0.239	10240	1	2	40	356	4	1	n/a
166.05	3.5	criticalItem	n/a	n/a	10241	1	2	41	357	4	n/a	criticalFalse
170.087	3.5	controlItem	n/a	n/a	10242	1	2	42	358	4	n/a	controlTrue
174.079	3.5	genericItem	n/a	n/a	10243	1	2	43	359	4	n/a	n/a
178.084	3.5	genericItem	n/a	n/a	10244	1	2	44	360	4	n/a	n/a
182.03	3.5	criticalItem	n/a	n/a	10245	1	2	45	361	4	n/a	criticalFalse
186.08	3.5	controlItem	n/a	n/a	10246	1	2	46	362	4	n/a	controlTrue
190.088	3.5	genericItem	n/a	n/a	10247	1	2	47	363	4	n/a	n/a
194.046	3.5	controlItem	n/a	n/a	10248	1	2	48	364	4	n/a	controlTrue
198.097	3.5	criticalItem	n/a	n/a	10249	1	2	49	365	4	n/a	criticalFoil
202.075	3.5	genericItem	n/a	n/a	10250	1	2	50	366	4	n/a	n/a
206.059	n/a	n/a	n/a	n/a	90200	9	2	0	367	4	n/a	n/a
210.047	n/a	n/a	n/a	n/a	80100	8	1	0	368	4	n/a	n/a
214.11	3.5	genericItem	n/a	n/a	10101	1	1	1	369	4	n/a	n/a
218.107	3.5	genericItem	n/a	n/a	10102	1	1	2	370	4	n/a	n/a
222.092	3.5	genericItem	1	0.341	10103	1	1	3	371	4	1	n/a
226.056	3.5	controlItem	n/a	n/a	10104	1	1	4	372	4	n/a	controlTrue
230.089	3.5	genericItem	n/a	n/a	10105	1	1	5	373	4	n/a	n/a
234.032	3.5	genericItem	1	0.249	10106	1	1	6	374	4	1	n/a
238.093	3.5	controlItem	n/a	n/a	10107	1	1	7	375	4	n/a	controlTrue
242.102	3.5	genericItem	n/a	n/a	10108	1	1	8	376	4	n/a	n/a
246.032	3.5	genericItem	n/a	n/a	10109	1	1	9	377	4	n/a	n/a
250.09	3.5	criticalItem	n/a	n/a	20110	2	1	10	378	4	n/a	criticalTrue
254.088	3.5	genericItem	n/a	n/a	10111	1	1	11	379	4	n/a	n/a
258.032	3.5	criticalItem	n/a	n/a	20112	2	1	12	380	4	n/a	criticalFalse
262.1	3.5	genericItem	n/a	n/a	10113	1	1	13	381	4	n/a	n/a
266.082	3.5	criticalItem	n/a	n/a	20114	2	1	14	382	4	n/a	criticalFalse
270.082	3.5	genericItem	n/a	n/a	10115	1	1	15	383	4	n/a	n/a
274.049	3.5	controlItem	n/a	n/a	10116	1	1	16	384	4	n/a	controlTrue
278.088	3.5	criticalItem	n/a	n/a	20117	2	1	17	385	4	n/a	criticalFalse
282.073	3.5	controlItem	n/a	n/a	10118	1	1	18	386	4	n/a	controlFoil1
286.046	3.5	criticalItem	n/a	n/a	20119	2	1	19	387	4	n/a	criticalTrue
290.087	3.5	genericItem	n/a	n/a	10120	1	1	20	388	4	n/a	n/a
294.101	3.5	controlItem	n/a	n/a	10121	1	1	21	389	4	n/a	controlFoil1
298.034	3.5	criticalItem	n/a	n/a	20122	2	1	22	390	4	n/a	criticalFoil
302.091	3.5	controlItem	n/a	n/a	10123	1	1	23	391	4	n/a	controlTrue
306.073	3.5	controlItem	n/a	n/a	10124	1	1	24	392	4	n/a	controlFoil1
310.05	3.5	controlItem	n/a	n/a	10125	1	1	25	393	4	n/a	controlFoil1
314.05	3.5	criticalItem	n/a	n/a	20126	2	1	26	394	4	n/a	criticalTrue
318.066	3.5	genericItem	1	0.178	10127	1	1	27	395	4	1	n/a
322.065	3.5	criticalItem	n/a	n/a	20128	2	1	28	396	4	n/a	criticalTrue
326.088	3.5	genericItem	n/a	n/a	10129	1	1	29	397	4	n/a	n/a
330.068	3.5	genericItem	n/a	n/a	10130	1	1	30	398	4	n/a	n/a
334.087	3.5	criticalItem	n/a	n/a	20131	2	1	31	399	4	n/a	criticalTrue
338.1	3.5	controlItem	n/a	n/a	10132	1	1	32	400	4	n/a	controlFoil1
342.033	3.5	genericItem	n/a	n/a	10133	1	1	33	401	4	n/a	n/a
346.046	3.5	genericItem	n/a	n/a	10134	1	1	34	402	4	n/a	n/a
350.091	3.5	genericItem	n/a	n/a	10135	1	1	35	403	4	n/a	n/a
354.079	3.5	criticalItem	n/a	n/a	20136	2	1	36	404	4	n/a	criticalFalse
358.07	3.5	genericItem	n/a	n/a	10137	1	1	37	405	4	n/a	n/a
362.067	3.5	genericItem	n/a	n/a	10138	1	1	38	406	4	n/a	n/a
366.05	3.5	genericItem	n/a	n/a	10139	1	1	39	407	4	n/a	n/a
370.086	3.5	controlItem	n/a	n/a	10140	1	1	40	408	4	n/a	controlFoil1
374.086	3.5	criticalItem	n/a	n/a	20141	2	1	41	409	4	n/a	criticalFalse
378.088	3.5	genericItem	n/a	n/a	10142	1	1	42	410	4	n/a	n/a
382.085	3.5	genericItem	n/a	n/a	10143	1	1	43	411	4	n/a	n/a
386.082	3.5	genericItem	1	0.205	10144	1	1	44	412	4	1	n/a
390.03	3.5	genericItem	n/a	n/a	10145	1	1	45	413	4	n/a	n/a
394.06	3.5	controlItem	n/a	n/a	10146	1	1	46	414	4	n/a	controlFoil2
398.087	3.5	genericItem	n/a	n/a	10147	1	1	47	415	4	n/a	n/a
402.079	3.5	genericItem	n/a	n/a	10148	1	1	48	416	4	n/a	n/a
406.126	3.5	controlItem	n/a	n/a	10149	1	1	49	417	4	n/a	controlFoil1
410.091	3.5	criticalItem	n/a	n/a	20150	2	1	50	418	4	n/a	criticalFalse
414.07	n/a	n/a	n/a	n/a	90100	9	1	0	419	4	n/a	n/a
418.024	n/a	n/a	n/a	n/a	90000	9	0	0	420	4	n/a	n/a
