onset	duration	trial_type	response	response_time	stim_id	stim_version	stim_events	stim_slides	trial_id	run_id	stim_redcross	subsequent_response_type
2.0943	n/a	n/a	n/a	n/a	81000	8	10	0	211	3	n/a	n/a
6.1544	3.5	genericItem	n/a	n/a	11001	1	10	1	212	3	n/a	n/a
10.0828	3.5	genericItem	n/a	n/a	11002	1	10	2	213	3	n/a	n/a
14.0816	3.5	criticalItem	n/a	n/a	11003	1	10	3	214	3	n/a	criticalTrue
18.0783	3.5	genericItem	n/a	n/a	11004	1	10	4	215	3	n/a	n/a
22.0646	3.5	criticalItem	n/a	n/a	11005	1	10	5	216	3	n/a	criticalFoil
26.0855	3.5	genericItem	n/a	n/a	11006	1	10	6	217	3	n/a	n/a
30.0777	3.5	genericItem	n/a	n/a	11007	1	10	7	218	3	n/a	n/a
34.0618	3.5	criticalItem	n/a	n/a	11008	1	10	8	219	3	n/a	criticalTrue
38.081	3.5	genericItem	n/a	n/a	11009	1	10	9	220	3	n/a	n/a
42.0865	3.5	criticalItem	n/a	n/a	11010	1	10	10	221	3	n/a	criticalTrue
46.0593	3.5	genericItem	n/a	n/a	11011	1	10	11	222	3	n/a	n/a
50.0774	3.5	genericItem	n/a	n/a	11012	1	10	12	223	3	n/a	n/a
54.0787	3.5	genericItem	n/a	n/a	11013	1	10	13	224	3	n/a	n/a
58.0857	3.5	genericItem	n/a	n/a	11014	1	10	14	225	3	n/a	n/a
62.0855	3.5	criticalItem	n/a	n/a	11015	1	10	15	226	3	n/a	criticalFalse
66.0927	3.5	genericItem	1	0.387	11016	1	10	16	227	3	1	n/a
70.093	3.5	controlItem	n/a	n/a	11017	1	10	17	228	3	n/a	controlFoil1
74.0866	3.5	criticalItem	n/a	n/a	11018	1	10	18	229	3	n/a	criticalTrue
78.091	3.5	controlItem	n/a	n/a	11019	1	10	19	230	3	n/a	controlTrue
82.0623	3.5	criticalItem	n/a	n/a	11020	1	10	20	231	3	n/a	criticalTrue
86.0881	3.5	controlItem	n/a	n/a	11021	1	10	21	232	3	n/a	controlTrue
90.0914	3.5	genericItem	n/a	n/a	11022	1	10	22	233	3	n/a	n/a
94.0279	3.5	criticalItem	n/a	n/a	11023	1	10	23	234	3	n/a	criticalFalse
98.028	3.5	genericItem	n/a	n/a	11024	1	10	24	235	3	n/a	n/a
102.079	3.5	genericItem	n/a	n/a	11025	1	10	25	236	3	n/a	n/a
106.028	3.5	criticalItem	n/a	n/a	11026	1	10	26	237	3	n/a	criticalFalse
110.03	3.5	genericItem	n/a	n/a	11027	1	10	27	238	3	n/a	n/a
114.089	3.5	controlItem	n/a	n/a	11028	1	10	28	239	3	n/a	controlTrue
118.062	3.5	controlItem	n/a	n/a	11029	1	10	29	240	3	n/a	controlTrue
122.097	3.5	genericItem	n/a	n/a	11030	1	10	30	241	3	n/a	n/a
126.078	3.5	controlItem	n/a	n/a	11031	1	10	31	242	3	n/a	controlFoil2
130.064	3.5	genericItem	1	0.283	11032	1	10	32	243	3	1	n/a
134.042	3.5	criticalItem	n/a	n/a	11033	1	10	33	244	3	n/a	criticalFoil
138.091	3.5	genericItem	n/a	n/a	11034	1	10	34	245	3	n/a	n/a
142.087	3.5	criticalItem	n/a	n/a	11035	1	10	35	246	3	n/a	criticalFalse
146.085	3.5	genericItem	n/a	n/a	11036	1	10	36	247	3	n/a	n/a
150.028	3.5	controlItem	n/a	n/a	11037	1	10	37	248	3	n/a	controlTrue
154.098	3.5	controlItem	n/a	n/a	11038	1	10	38	249	3	n/a	controlTrue
158.064	3.5	controlItem	n/a	n/a	11039	1	10	39	250	3	n/a	controlTrue
162.079	3.5	controlItem	n/a	n/a	11040	1	10	40	251	3	n/a	controlFoil1
166.029	3.5	genericItem	n/a	n/a	11041	1	10	41	252	3	n/a	n/a
170.062	3.5	genericItem	n/a	n/a	11042	1	10	42	253	3	n/a	n/a
174.03	3.5	genericItem	n/a	n/a	11043	1	10	43	254	3	n/a	n/a
178.064	3.5	genericItem	n/a	n/a	11044	1	10	44	255	3	n/a	n/a
182.03	3.5	criticalItem	n/a	n/a	11045	1	10	45	256	3	n/a	criticalFalse
186.079	3.5	controlItem	n/a	n/a	11046	1	10	46	257	3	n/a	controlTrue
190.028	3.5	genericItem	n/a	n/a	11047	1	10	47	258	3	n/a	n/a
194.108	3.5	genericItem	n/a	n/a	11048	1	10	48	259	3	n/a	n/a
198.028	3.5	controlItem	n/a	n/a	11049	1	10	49	260	3	n/a	controlTrue
202.068	3.5	genericItem	n/a	n/a	11050	1	10	50	261	3	n/a	n/a
206.074	n/a	n/a	n/a	n/a	91000	9	10	0	262	3	n/a	n/a
210.073	n/a	n/a	n/a	n/a	80900	8	9	0	263	3	n/a	n/a
214.083	3.5	genericItem	n/a	n/a	10901	1	9	1	264	3	n/a	n/a
218.078	3.5	genericItem	n/a	n/a	10902	1	9	2	265	3	n/a	n/a
222.135	3.5	controlItem	n/a	n/a	10903	1	9	3	266	3	n/a	controlFoil1
226.061	3.5	criticalItem	n/a	n/a	20904	2	9	4	267	3	n/a	criticalFalse
230.076	3.5	controlItem	n/a	n/a	10905	1	9	5	268	3	n/a	controlFoil1
234.079	3.5	genericItem	n/a	n/a	10906	1	9	6	269	3	n/a	n/a
238.064	3.5	genericItem	n/a	n/a	10907	1	9	7	270	3	n/a	n/a
242.029	3.5	criticalItem	n/a	n/a	20908	2	9	8	271	3	n/a	criticalFalse
246.076	3.5	controlItem	n/a	n/a	10909	1	9	9	272	3	n/a	controlTrue
250.134	3.5	criticalItem	n/a	n/a	20910	2	9	10	273	3	n/a	criticalFalse
254.086	3.5	controlItem	n/a	n/a	10911	1	9	11	274	3	n/a	controlTrue
258.078	3.5	genericItem	n/a	n/a	10912	1	9	12	275	3	n/a	n/a
262.07	3.5	criticalItem	n/a	n/a	20913	2	9	13	276	3	n/a	criticalTrue
266.08	3.5	genericItem	n/a	n/a	10914	1	9	14	277	3	n/a	n/a
270.075	3.5	controlItem	n/a	n/a	10915	1	9	15	278	3	n/a	controlTrue
274.063	3.5	genericItem	n/a	n/a	10916	1	9	16	279	3	n/a	n/a
278.044	3.5	controlItem	n/a	n/a	10917	1	9	17	280	3	n/a	controlTrue
282.103	3.5	genericItem	n/a	n/a	10918	1	9	18	281	3	n/a	n/a
286.065	3.5	criticalItem	n/a	n/a	20919	2	9	19	282	3	n/a	criticalFoil
290.029	3.5	genericItem	n/a	n/a	10920	1	9	20	283	3	n/a	n/a
294.088	3.5	genericItem	n/a	n/a	10921	1	9	21	284	3	n/a	n/a
298.076	3.5	criticalItem	n/a	n/a	20922	2	9	22	285	3	n/a	criticalFalse
302.085	3.5	controlItem	n/a	n/a	10923	1	9	23	286	3	n/a	controlTrue
306.104	3.5	criticalItem	n/a	n/a	20924	2	9	24	287	3	n/a	criticalFoil
310.062	3.5	genericItem	n/a	n/a	10925	1	9	25	288	3	n/a	n/a
314.028	3.5	criticalItem	n/a	n/a	20926	2	9	26	289	3	n/a	criticalFalse
318.078	3.5	genericItem	n/a	n/a	10927	1	9	27	290	3	n/a	n/a
322.028	3.5	criticalItem	n/a	n/a	20928	2	9	28	291	3	n/a	criticalTrue
326.048	3.5	genericItem	n/a	n/a	10929	1	9	29	292	3	n/a	n/a
330.105	3.5	genericItem	n/a	n/a	10930	1	9	30	293	3	n/a	n/a
334.059	3.5	controlItem	n/a	n/a	10931	1	9	31	294	3	n/a	controlTrue
338.079	3.5	genericItem	n/a	n/a	10932	1	9	32	295	3	n/a	n/a
342.062	3.5	genericItem	n/a	n/a	10933	1	9	33	296	3	n/a	n/a
346.078	3.5	genericItem	n/a	n/a	10934	1	9	34	297	3	n/a	n/a
350.086	3.5	criticalItem	n/a	n/a	20935	2	9	35	298	3	n/a	criticalFalse
354.044	3.5	genericItem	n/a	n/a	10936	1	9	36	299	3	n/a	n/a
358.08	3.5	genericItem	n/a	n/a	10937	1	9	37	300	3	n/a	n/a
362.027	3.5	genericItem	n/a	n/a	10938	1	9	38	301	3	n/a	n/a
366.078	3.5	genericItem	n/a	n/a	10939	1	9	39	302	3	n/a	n/a
370.066	3.5	genericItem	1	0.181	10940	1	9	40	303	3	1	n/a
374.088	3.5	criticalItem	n/a	n/a	20941	2	9	41	304	3	n/a	criticalTrue
378.087	3.5	genericItem	n/a	n/a	10942	1	9	42	305	3	n/a	n/a
382.058	3.5	controlItem	n/a	n/a	10943	1	9	43	306	3	n/a	controlTrue
386.039	3.5	genericItem	1	0.129	10944	1	9	44	307	3	1	n/a
390.027	3.5	controlItem	n/a	n/a	10945	1	9	45	308	3	n/a	controlTrue
394.062	3.5	genericItem	n/a	n/a	10946	1	9	46	309	3	n/a	n/a
398.027	3.5	controlItem	n/a	n/a	10947	1	9	47	310	3	n/a	controlTrue
402.086	3.5	genericItem	n/a	n/a	10948	1	9	48	311	3	n/a	n/a
406.028	3.5	criticalItem	n/a	n/a	20949	2	9	49	312	3	n/a	criticalFoil
410.063	3.5	controlItem	n/a	n/a	10950	1	9	50	313	3	n/a	controlTrue
414.074	n/a	n/a	n/a	n/a	90900	9	9	0	314	3	n/a	n/a
418.022	n/a	n/a	n/a	n/a	90000	9	0	0	315	3	n/a	n/a
