onset	duration	trial_type	response	response_time	stim_id	stim_events	stim_slides	trial_id	run_id	stim_type	response_type
2.00982	n/a	n/a	n/a	n/a	80700	7	0	445	4	8	n/a
12.0085	3.5	criticalItem	n/a	n/a	10704	7	4	446	4	1	n/a
15.4916	3.0	criticalItem	n/a	n/a	40704	7	4	447	4	0	n/a
18.4922	3.0	criticalItem	True	0.813	40704	7	4	448	4	4	criticalTrue
22.0065	3.5	controlItem	n/a	n/a	10711	7	11	449	4	1	n/a
25.4895	3.0	controlItem	n/a	n/a	60711	7	11	450	4	0	n/a
28.49	3.0	controlItem	Foil1	0.617	60711	7	11	451	4	6	controlFoil1
32.0055	3.5	criticalItem	n/a	n/a	10746	7	46	452	4	1	n/a
35.4884	3.0	criticalItem	n/a	n/a	70746	7	46	453	4	0	n/a
38.4882	3.0	criticalItem	Foil	1.457	70746	7	46	454	4	7	criticalFoil
42.0046	3.5	criticalItem	n/a	n/a	10712	7	12	455	4	1	n/a
45.4873	3.0	criticalItem	n/a	n/a	60712	7	12	456	4	0	n/a
48.4872	3.0	criticalItem	False	0.692	60712	7	12	457	4	6	criticalFalse
52.0035	3.5	criticalItem	n/a	n/a	10729	7	29	458	4	1	n/a
55.4866	3.0	criticalItem	n/a	n/a	70729	7	29	459	4	0	n/a
58.4868	3.0	criticalItem	True	0.489	70729	7	29	460	4	7	criticalTrue
62.0025	3.5	criticalItem	n/a	n/a	10719	7	19	461	4	1	n/a
65.4857	3.0	criticalItem	n/a	n/a	20719	7	19	462	4	0	n/a
68.4854	3.0	criticalItem	True	0.516	20719	7	19	463	4	2	criticalTrue
72.0014	3.5	controlItem	n/a	n/a	10708	7	8	464	4	1	n/a
75.4867	3.0	controlItem	n/a	n/a	30708	7	8	465	4	0	n/a
78.4845	3.0	controlItem	True	1.215	30708	7	8	466	4	3	controlTrue
82.0022	3.5	criticalItem	n/a	n/a	10744	7	44	467	4	1	n/a
85.484	3.0	criticalItem	n/a	n/a	70744	7	44	468	4	0	n/a
88.4847	3.0	criticalItem	False	2.618	70744	7	44	469	4	7	criticalFalse
91.9994	3.5	criticalItem	n/a	n/a	10749	7	49	470	4	1	n/a
95.4832	3.0	criticalItem	n/a	n/a	50749	7	49	471	4	0	n/a
98.4834	3.0	criticalItem	True	0.728	50749	7	49	472	4	5	criticalTrue
102.015	3.5	criticalItem	n/a	n/a	10721	7	21	473	4	1	n/a
105.499	3.0	criticalItem	n/a	n/a	40721	7	21	474	4	0	n/a
108.498	3.0	criticalItem	Foil	1.524	40721	7	21	475	4	4	criticalFoil
112.015	3.5	controlItem	n/a	n/a	10720	7	20	476	4	1	n/a
115.498	3.0	controlItem	n/a	n/a	60720	7	20	477	4	0	n/a
118.498	3.0	controlItem	True	0.592	60720	7	20	478	4	6	controlTrue
122.013	3.5	criticalItem	n/a	n/a	10709	7	9	479	4	1	n/a
125.496	3.0	criticalItem	n/a	n/a	20709	7	9	480	4	0	n/a
128.496	3.0	criticalItem	False	0.741	20709	7	9	481	4	2	criticalFalse
132.013	3.5	controlItem	n/a	n/a	10734	7	34	482	4	1	n/a
135.496	3.0	controlItem	n/a	n/a	30734	7	34	483	4	0	n/a
138.497	3.0	controlItem	True	2.174	30734	7	34	484	4	3	controlTrue
142.011	3.5	controlItem	n/a	n/a	10703	7	3	485	4	1	n/a
145.494	3.0	controlItem	n/a	n/a	70703	7	3	486	4	0	n/a
148.495	3.0	controlItem	True	0.655	70703	7	3	487	4	7	controlTrue
152.011	3.5	controlItem	n/a	n/a	10728	7	28	488	4	1	n/a
155.494	3.0	controlItem	n/a	n/a	40728	7	28	489	4	0	n/a
158.493	3.0	controlItem	True	0.701	40728	7	28	490	4	4	controlTrue
162.009	3.5	controlItem	n/a	n/a	10705	7	5	491	4	1	n/a
165.493	3.0	controlItem	n/a	n/a	30705	7	5	492	4	0	n/a
168.492	3.0	controlItem	True	0.557	30705	7	5	493	4	3	controlTrue
172.009	3.5	controlItem	n/a	n/a	10718	7	18	494	4	1	n/a
175.492	3.0	controlItem	n/a	n/a	40718	7	18	495	4	0	n/a
178.491	3.0	controlItem	True	2.518	40718	7	18	496	4	4	controlTrue
182.008	3.5	controlItem	n/a	n/a	10750	7	50	497	4	1	n/a
185.491	3.0	controlItem	n/a	n/a	40750	7	50	498	4	0	n/a
188.491	3.0	controlItem	True	0.654	40750	7	50	499	4	4	controlTrue
192.006	3.5	criticalItem	n/a	n/a	10739	7	39	500	4	1	n/a
195.491	3.0	criticalItem	n/a	n/a	50739	7	39	501	4	0	n/a
198.489	3.0	criticalItem	True	0.678	50739	7	39	502	4	5	criticalTrue
202.005	3.5	controlItem	n/a	n/a	10740	7	40	503	4	1	n/a
205.489	3.0	controlItem	n/a	n/a	40740	7	40	504	4	0	n/a
208.489	3.0	controlItem	True	1.934	40740	7	40	505	4	4	controlTrue
212.006	3.5	criticalItem	n/a	n/a	10726	7	26	506	4	1	n/a
215.488	3.0	criticalItem	n/a	n/a	60726	7	26	507	4	0	n/a
218.487	3.0	criticalItem	True	0.75	60726	7	26	508	4	6	criticalTrue
222.003	3.5	criticalItem	n/a	n/a	10735	7	35	509	4	1	n/a
225.486	3.0	criticalItem	n/a	n/a	40735	7	35	510	4	0	n/a
228.488	3.0	criticalItem	Foil	0.367	40735	7	35	511	4	4	criticalFoil
232.002	3.5	controlItem	n/a	n/a	10714	7	14	512	4	1	n/a
235.486	3.0	controlItem	n/a	n/a	30714	7	14	513	4	0	n/a
238.485	3.0	controlItem	Foil1	1.722	30714	7	14	514	4	3	controlFoil1
242.001	3.5	controlItem	n/a	n/a	10707	7	7	515	4	1	n/a
245.485	3.0	controlItem	n/a	n/a	30707	7	7	516	4	0	n/a
248.486	3.0	controlItem	True	0.278	30707	7	7	517	4	3	controlTrue
252	n/a	n/a	n/a	n/a	90700	7	0	518	4	9	n/a
256	n/a	n/a	n/a	n/a	81000	10	0	519	4	8	n/a
265.999	3.5	criticalItem	n/a	n/a	11005	10	5	520	4	1	n/a
269.483	3.0	criticalItem	n/a	n/a	51005	10	5	521	4	0	n/a
272.482	3.0	criticalItem	True	0.421	51005	10	5	522	4	5	criticalTrue
276.015	3.5	controlItem	n/a	n/a	11038	10	38	523	4	1	n/a
279.498	3.0	controlItem	n/a	n/a	31038	10	38	524	4	0	n/a
282.497	3.0	controlItem	Foil2	0.875	31038	10	38	525	4	3	controlFoil2
286.014	3.5	controlItem	n/a	n/a	11046	10	46	526	4	1	n/a
289.497	3.0	controlItem	n/a	n/a	51046	10	46	527	4	0	n/a
292.496	3.0	controlItem	Foil2	1.302	51046	10	46	528	4	5	controlFoil2
296.013	3.5	criticalItem	n/a	n/a	11008	10	8	529	4	1	n/a
299.497	3.0	criticalItem	n/a	n/a	61008	10	8	530	4	0	n/a
302.496	3.0	criticalItem	False	1.363	61008	10	8	531	4	6	criticalFalse
306.012	3.5	controlItem	n/a	n/a	11019	10	19	532	4	1	n/a
309.495	3.0	controlItem	n/a	n/a	51019	10	19	533	4	0	n/a
312.497	3.0	controlItem	Foil2	0.692	51019	10	19	534	4	5	controlFoil2
316.01	3.5	controlItem	n/a	n/a	11028	10	28	535	4	1	n/a
319.494	3.0	controlItem	n/a	n/a	61028	10	28	536	4	0	n/a
322.494	3.0	controlItem	Foil2	1.466	61028	10	28	537	4	6	controlFoil2
326.01	3.5	controlItem	n/a	n/a	11040	10	40	538	4	1	n/a
329.493	3.0	controlItem	n/a	n/a	51040	10	40	539	4	0	n/a
332.494	3.0	controlItem	True	1.707	51040	10	40	540	4	5	controlTrue
336.009	3.5	criticalItem	n/a	n/a	11018	10	18	541	4	1	n/a
339.492	3.0	criticalItem	ForbiddenKey	1.659	71018	10	18	542	4	0	n/a
342.492	3.0	criticalItem	True	0.674	71018	10	18	543	4	7	criticalTrue
346.008	3.5	criticalItem	n/a	n/a	11045	10	45	544	4	1	n/a
349.491	3.0	criticalItem	n/a	n/a	31045	10	45	545	4	0	n/a
352.491	3.0	criticalItem	False	0.348	31045	10	45	546	4	3	criticalFalse
356.009	3.5	criticalItem	n/a	n/a	11010	10	10	547	4	1	n/a
359.49	3.0	criticalItem	n/a	n/a	21010	10	10	548	4	0	n/a
362.49	3.0	criticalItem	False	0.768	21010	10	10	549	4	2	criticalFalse
366.006	3.5	controlItem	n/a	n/a	11037	10	37	550	4	1	n/a
369.489	3.0	controlItem	n/a	n/a	71037	10	37	551	4	0	n/a
372.488	3.0	controlItem	True	2.686	71037	10	37	552	4	7	controlTrue
376.005	3.5	criticalItem	n/a	n/a	11023	10	23	553	4	1	n/a
379.488	3.0	criticalItem	n/a	n/a	41023	10	23	554	4	0	n/a
382.487	3.0	criticalItem	True	0.942	41023	10	23	555	4	4	criticalTrue
386.005	3.5	criticalItem	n/a	n/a	11033	10	33	556	4	1	n/a
389.487	3.0	criticalItem	n/a	n/a	21033	10	33	557	4	0	n/a
392.487	3.0	criticalItem	Foil	0.695	21033	10	33	558	4	2	criticalFoil
396.003	3.5	controlItem	n/a	n/a	11029	10	29	559	4	1	n/a
399.486	3.0	controlItem	n/a	n/a	71029	10	29	560	4	0	n/a
402.486	3.0	controlItem	True	2.698	71029	10	29	561	4	7	controlTrue
406.002	3.5	controlItem	n/a	n/a	11021	10	21	562	4	1	n/a
409.485	3.0	controlItem	n/a	n/a	61021	10	21	563	4	0	n/a
412.484	3.0	controlItem	True	0.692	61021	10	21	564	4	6	controlTrue
416.001	3.5	criticalItem	n/a	n/a	11015	10	15	565	4	1	n/a
419.485	3.0	criticalItem	n/a	n/a	71015	10	15	566	4	0	n/a
422.484	3.0	criticalItem	True	0.741	71015	10	15	567	4	7	criticalTrue
426	3.5	criticalItem	n/a	n/a	11035	10	35	568	4	1	n/a
429.483	3.0	criticalItem	n/a	n/a	61035	10	35	569	4	0	n/a
432.483	3.0	criticalItem	False	2.673	61035	10	35	570	4	6	criticalFalse
436.001	3.5	controlItem	n/a	n/a	11049	10	49	571	4	1	n/a
439.482	3.0	controlItem	n/a	n/a	71049	10	49	572	4	0	n/a
442.482	3.0	controlItem	True	0.571	71049	10	49	573	4	7	controlTrue
446.015	3.5	controlItem	n/a	n/a	11031	10	31	574	4	1	n/a
449.498	3.0	controlItem	n/a	n/a	31031	10	31	575	4	0	n/a
452.498	3.0	controlItem	Foil1	1.533	31031	10	31	576	4	3	controlFoil1
456.014	3.5	controlItem	n/a	n/a	11039	10	39	577	4	1	n/a
459.497	3.0	controlItem	n/a	n/a	51039	10	39	578	4	0	n/a
462.497	3.0	controlItem	Foil2	0.786	51039	10	39	579	4	5	controlFoil2
466.012	3.5	criticalItem	n/a	n/a	11020	10	20	580	4	1	n/a
469.496	3.0	criticalItem	n/a	n/a	41020	10	20	581	4	0	n/a
472.495	3.0	criticalItem	True	0.997	41020	10	20	582	4	4	criticalTrue
476.012	3.5	criticalItem	n/a	n/a	11003	10	3	583	4	1	n/a
479.495	3.0	criticalItem	n/a	n/a	61003	10	3	584	4	0	n/a
482.495	3.0	criticalItem	Foil	0.438	61003	10	3	585	4	6	criticalFoil
486.01	3.5	criticalItem	n/a	n/a	11026	10	26	586	4	1	n/a
489.494	3.0	criticalItem	n/a	n/a	71026	10	26	587	4	0	n/a
492.493	3.0	criticalItem	False	0.817	71026	10	26	588	4	7	criticalFalse
496.01	3.5	controlItem	n/a	n/a	11017	10	17	589	4	1	n/a
499.493	3.0	controlItem	n/a	n/a	71017	10	17	590	4	0	n/a
502.494	3.0	controlItem	Foil2	2.149	71017	10	17	591	4	7	controlFoil2
506.009	n/a	n/a	n/a	n/a	91000	10	0	592	4	9	n/a
