onset	duration	trial_type	response	response_time	stim_id	stim_events	stim_slides	trial_id	run_id	stim_type	response_type
2.00799	n/a	n/a	n/a	n/a	80400	4	0	297	3	8	n/a
12.0067	3.5	criticalItem	n/a	n/a	10415	4	15	298	3	1	n/a
15.4901	3.0	criticalItem	ForbiddenKey	2.732	40415	4	15	299	3	0	n/a
18.4894	3.0	criticalItem	True	0.397	40415	4	15	300	3	4	criticalTrue
22.0056	3.5	criticalItem	n/a	n/a	10417	4	17	301	3	1	n/a
25.4887	3.0	criticalItem	n/a	n/a	50417	4	17	302	3	0	n/a
28.4882	3.0	criticalItem	True	0.717	50417	4	17	303	3	5	criticalTrue
32.0049	3.5	criticalItem	n/a	n/a	10436	4	36	304	3	1	n/a
35.4876	3.0	criticalItem	n/a	n/a	30436	4	36	305	3	0	n/a
38.4876	3.0	criticalItem	False	0.973	30436	4	36	306	3	3	criticalFalse
42.0037	3.5	criticalItem	n/a	n/a	10407	4	7	307	3	1	n/a
45.4866	3.0	criticalItem	n/a	n/a	70407	4	7	308	3	0	n/a
48.4887	3.0	criticalItem	True	1.453	70407	4	7	309	3	7	criticalTrue
52.0028	3.5	criticalItem	n/a	n/a	10419	4	19	310	3	1	n/a
55.4879	3.0	criticalItem	n/a	n/a	50419	4	19	311	3	0	n/a
58.4879	3.0	criticalItem	True	0.931	50419	4	19	312	3	5	criticalTrue
62.0018	3.5	controlItem	n/a	n/a	10444	4	44	313	3	1	n/a
65.4868	3.0	controlItem	n/a	n/a	20444	4	44	314	3	0	n/a
68.4849	3.0	controlItem	True	0.527	20444	4	44	315	3	2	controlTrue
72.0008	3.5	controlItem	n/a	n/a	10409	4	9	316	3	1	n/a
75.4842	3.0	controlItem	n/a	n/a	60409	4	9	317	3	0	n/a
78.4838	3.0	controlItem	True	0.623	60409	4	9	318	3	6	controlTrue
81.9998	3.5	controlItem	n/a	n/a	10448	4	48	319	3	1	n/a
85.4848	3.0	controlItem	n/a	n/a	70448	4	48	320	3	0	n/a
88.4828	3.0	controlItem	True	0.685	70448	4	48	321	3	7	controlTrue
92.0154	3.5	criticalItem	n/a	n/a	10411	4	11	322	3	1	n/a
95.5004	3.0	criticalItem	n/a	n/a	50411	4	11	323	3	0	n/a
98.4988	3.0	criticalItem	False	0.335	50411	4	11	324	3	5	criticalFalse
102.015	3.5	controlItem	n/a	n/a	10430	4	30	325	3	1	n/a
105.498	3.0	controlItem	n/a	n/a	20430	4	30	326	3	0	n/a
108.497	3.0	controlItem	Foil2	1.475	20430	4	30	327	3	2	controlFoil2
112.013	3.5	controlItem	n/a	n/a	10425	4	25	328	3	1	n/a
115.497	3.0	controlItem	n/a	n/a	40425	4	25	329	3	0	n/a
118.496	3.0	controlItem	True	1.51	40425	4	25	330	3	4	controlTrue
122.012	3.5	controlItem	n/a	n/a	10450	4	50	331	3	1	n/a
125.495	3.0	controlItem	n/a	n/a	50450	4	50	332	3	0	n/a
128.496	3.0	controlItem	True	0.686	50450	4	50	333	3	5	controlTrue
132.011	3.5	controlItem	n/a	n/a	10446	4	46	334	3	1	n/a
135.495	3.0	controlItem	n/a	n/a	30446	4	46	335	3	0	n/a
138.495	3.0	controlItem	True	0.679	30446	4	46	336	3	3	controlTrue
142.011	3.5	controlItem	n/a	n/a	10412	4	12	337	3	1	n/a
145.494	3.0	controlItem	n/a	n/a	60412	4	12	338	3	0	n/a
148.493	3.0	controlItem	True	0.643	60412	4	12	339	3	6	controlTrue
152.01	3.5	criticalItem	n/a	n/a	10449	4	49	340	3	1	n/a
155.493	3.0	criticalItem	n/a	n/a	60449	4	49	341	3	0	n/a
158.493	3.0	criticalItem	True	0.444	60449	4	49	342	3	6	criticalTrue
162.008	3.5	controlItem	n/a	n/a	10442	4	42	343	3	1	n/a
165.492	3.0	controlItem	n/a	n/a	30442	4	42	344	3	0	n/a
168.492	3.0	controlItem	True	0.652	30442	4	42	345	3	3	controlTrue
172.008	3.5	criticalItem	n/a	n/a	10424	4	24	346	3	1	n/a
175.493	3.0	criticalItem	n/a	n/a	40424	4	24	347	3	0	n/a
178.491	3.0	criticalItem	True	0.957	40424	4	24	348	3	4	criticalTrue
182.007	3.5	criticalItem	n/a	n/a	10404	4	4	349	3	1	n/a
185.492	3.0	criticalItem	ForbiddenKey	1.08	70404	4	4	350	3	0	n/a
188.489	3.0	criticalItem	True	1.237	70404	4	4	351	3	7	criticalTrue
192.005	3.5	controlItem	n/a	n/a	10416	4	16	352	3	1	n/a
195.489	3.0	controlItem	n/a	n/a	40416	4	16	353	3	0	n/a
198.488	3.0	controlItem	Foil1	2.358	40416	4	16	354	3	4	controlFoil1
202.004	3.5	controlItem	n/a	n/a	10422	4	22	355	3	1	n/a
205.488	3.0	controlItem	n/a	n/a	20422	4	22	356	3	0	n/a
208.487	3.0	controlItem	Foil1	0.794	20422	4	22	357	3	2	controlFoil1
212.003	3.5	criticalItem	n/a	n/a	10440	4	40	358	3	1	n/a
215.487	3.0	criticalItem	n/a	n/a	30440	4	40	359	3	0	n/a
218.487	3.0	criticalItem	True	0.305	30440	4	40	360	3	3	criticalTrue
222.003	3.5	criticalItem	n/a	n/a	10429	4	29	361	3	1	n/a
225.485	3.0	criticalItem	n/a	n/a	70429	4	29	362	3	0	n/a
228.485	3.0	criticalItem	False	0.335	70429	4	29	363	3	7	criticalFalse
232.001	3.5	controlItem	n/a	n/a	10443	4	43	364	3	1	n/a
235.485	3.0	controlItem	n/a	n/a	30443	4	43	365	3	0	n/a
238.486	3.0	controlItem	True	0.658	30443	4	43	366	3	3	controlTrue
242.001	3.5	criticalItem	n/a	n/a	10438	4	38	367	3	1	n/a
245.483	3.0	criticalItem	n/a	n/a	40438	4	38	368	3	0	n/a
248.484	3.0	criticalItem	Foil	1.365	40438	4	38	369	3	4	criticalFoil
252	n/a	n/a	n/a	n/a	90400	4	0	370	3	9	n/a
256.016	n/a	n/a	n/a	n/a	80500	5	0	371	3	8	n/a
266.015	3.5	criticalItem	n/a	n/a	10550	5	50	372	3	1	n/a
269.499	3.0	criticalItem	n/a	n/a	30550	5	50	373	3	0	n/a
272.498	3.0	criticalItem	False	1.221	30550	5	50	374	3	3	criticalFalse
276.014	3.5	criticalItem	n/a	n/a	10521	5	21	375	3	1	n/a
279.497	3.0	criticalItem	n/a	n/a	30521	5	21	376	3	0	n/a
282.497	3.0	criticalItem	True	0.585	30521	5	21	377	3	3	criticalTrue
286.013	3.5	criticalItem	n/a	n/a	10526	5	26	378	3	1	n/a
289.496	3.0	criticalItem	n/a	n/a	50526	5	26	379	3	0	n/a
292.496	3.0	criticalItem	False	0.752	50526	5	26	380	3	5	criticalFalse
296.012	3.5	criticalItem	n/a	n/a	10523	5	23	381	3	1	n/a
299.495	3.0	criticalItem	n/a	n/a	30523	5	23	382	3	0	n/a
302.495	3.0	criticalItem	False	1.518	30523	5	23	383	3	3	criticalFalse
306.011	3.5	criticalItem	n/a	n/a	10519	5	19	384	3	1	n/a
309.496	3.0	criticalItem	n/a	n/a	70519	5	19	385	3	0	n/a
312.494	3.0	criticalItem	True	0.598	70519	5	19	386	3	7	criticalTrue
316.01	3.5	controlItem	n/a	n/a	10527	5	27	387	3	1	n/a
319.493	3.0	controlItem	n/a	n/a	30527	5	27	388	3	0	n/a
322.493	3.0	controlItem	True	0.583	30527	5	27	389	3	3	controlTrue
326.009	3.5	controlItem	n/a	n/a	10549	5	49	390	3	1	n/a
329.493	3.0	controlItem	n/a	n/a	20549	5	49	391	3	0	n/a
332.492	3.0	controlItem	True	2.595	20549	5	49	392	3	2	controlTrue
336.008	3.5	criticalItem	n/a	n/a	10503	5	3	393	3	1	n/a
339.492	3.0	criticalItem	n/a	n/a	30503	5	3	394	3	0	n/a
342.491	3.0	criticalItem	False	0.534	30503	5	3	395	3	3	criticalFalse
346.008	3.5	controlItem	n/a	n/a	10546	5	46	396	3	1	n/a
349.49	3.0	controlItem	n/a	n/a	50546	5	46	397	3	0	n/a
352.49	3.0	controlItem	Foil2	1.642	50546	5	46	398	3	5	controlFoil2
356.006	3.5	criticalItem	n/a	n/a	10547	5	47	399	3	1	n/a
359.489	3.0	criticalItem	ForbiddenKey	2.371	40547	5	47	400	3	0	n/a
362.489	3.0	criticalItem	False	2.008	40547	5	47	401	3	4	criticalFalse
366.005	3.5	controlItem	n/a	n/a	10517	5	17	402	3	1	n/a
369.489	3.0	controlItem	n/a	n/a	70517	5	17	403	3	0	n/a
372.488	3.0	controlItem	Foil1	1.369	70517	5	17	404	3	7	controlFoil1
376.004	3.5	controlItem	n/a	n/a	10514	5	14	405	3	1	n/a
379.487	3.0	controlItem	n/a	n/a	60514	5	14	406	3	0	n/a
382.487	3.0	controlItem	True	2.634	60514	5	14	407	3	6	controlTrue
386.003	3.5	controlItem	n/a	n/a	10525	5	25	408	3	1	n/a
389.486	3.0	controlItem	n/a	n/a	60525	5	25	409	3	0	n/a
392.486	3.0	controlItem	True	0.556	60525	5	25	410	3	6	controlTrue
396.002	3.5	controlItem	n/a	n/a	10515	5	15	411	3	1	n/a
399.485	3.0	controlItem	n/a	n/a	30515	5	15	412	3	0	n/a
402.485	3.0	controlItem	True	0.437	30515	5	15	413	3	3	controlTrue
406.001	3.5	controlItem	n/a	n/a	10532	5	32	414	3	1	n/a
409.484	3.0	controlItem	n/a	n/a	70532	5	32	415	3	0	n/a
412.484	3.0	controlItem	True	0.53	70532	5	32	416	3	7	controlTrue
416	3.5	criticalItem	n/a	n/a	10505	5	5	417	3	1	n/a
419.483	3.0	criticalItem	n/a	n/a	40505	5	5	418	3	0	n/a
422.484	3.0	criticalItem	True	0.548	40505	5	5	419	3	4	criticalTrue
426.001	3.5	criticalItem	n/a	n/a	10541	5	41	420	3	1	n/a
429.482	3.0	criticalItem	n/a	n/a	20541	5	41	421	3	0	n/a
432.483	3.0	criticalItem	True	1.938	20541	5	41	422	3	2	criticalTrue
436.015	3.5	criticalItem	n/a	n/a	10531	5	31	423	3	1	n/a
439.498	3.0	criticalItem	n/a	n/a	50531	5	31	424	3	0	n/a
442.499	3.0	criticalItem	True	0.359	50531	5	31	425	3	5	criticalTrue
446.014	3.5	controlItem	n/a	n/a	10524	5	24	426	3	1	n/a
449.498	3.0	controlItem	n/a	n/a	20524	5	24	427	3	0	n/a
452.497	3.0	controlItem	True	0.704	20524	5	24	428	3	2	controlTrue
456.012	3.5	controlItem	n/a	n/a	10518	5	18	429	3	1	n/a
459.496	3.0	controlItem	n/a	n/a	20518	5	18	430	3	0	n/a
462.495	3.0	controlItem	True	0.442	20518	5	18	431	3	2	controlTrue
466.014	3.5	controlItem	n/a	n/a	10522	5	22	432	3	1	n/a
469.495	3.0	controlItem	n/a	n/a	70522	5	22	433	3	0	n/a
472.495	3.0	controlItem	True	1.53	70522	5	22	434	3	7	controlTrue
476.011	3.5	criticalItem	n/a	n/a	10516	5	16	435	3	1	n/a
479.494	3.0	criticalItem	n/a	n/a	40516	5	16	436	3	0	n/a
482.494	3.0	criticalItem	True	0.637	40516	5	16	437	3	4	criticalTrue
486.011	3.5	criticalItem	n/a	n/a	10539	5	39	438	3	1	n/a
489.493	3.0	criticalItem	n/a	n/a	70539	5	39	439	3	0	n/a
492.495	3.0	criticalItem	False	0.917	70539	5	39	440	3	7	criticalFalse
496.009	3.5	controlItem	n/a	n/a	10542	5	42	441	3	1	n/a
499.492	3.0	controlItem	n/a	n/a	40542	5	42	442	3	0	n/a
502.491	3.0	controlItem	True	0.52	40542	5	42	443	3	4	controlTrue
506.008	n/a	n/a	n/a	n/a	90500	5	0	444	3	9	n/a
