onset	duration	trial_type	response	response_time	stim_id	stim_events	stim_slides	trial_id	run_id	stim_type	response_type
2.00889	n/a	n/a	n/a	n/a	81000	10	0	445	4	8	n/a
12.0071	3.5	controlItem	n/a	n/a	11017	10	17	446	4	1	n/a
15.4896	3.0	controlItem	n/a	n/a	41017	10	17	447	4	0	n/a
18.491	3.0	controlItem	True	0.855	41017	10	17	448	4	4	controlTrue
22.0074	3.5	controlItem	n/a	n/a	11039	10	39	449	4	1	n/a
25.49	3.0	controlItem	n/a	n/a	61039	10	39	450	4	0	n/a
28.4884	3.0	controlItem	True	0.54	61039	10	39	451	4	6	controlTrue
32.0057	3.5	criticalItem	n/a	n/a	11020	10	20	452	4	1	n/a
35.4893	3.0	criticalItem	n/a	n/a	61020	10	20	453	4	0	n/a
38.4885	3.0	criticalItem	True	0.706	61020	10	20	454	4	6	criticalTrue
42.004	3.5	criticalItem	n/a	n/a	11023	10	23	455	4	1	n/a
45.4877	3.0	criticalItem	n/a	n/a	21023	10	23	456	4	0	n/a
48.4873	3.0	criticalItem	True	0.554	21023	10	23	457	4	2	criticalTrue
52.0037	3.5	controlItem	n/a	n/a	11019	10	19	458	4	1	n/a
55.4865	3.0	controlItem	n/a	n/a	41019	10	19	459	4	0	n/a
58.4855	3.0	controlItem	Foil1	0.544	41019	10	19	460	4	4	controlFoil1
62.0028	3.5	controlItem	n/a	n/a	11021	10	21	461	4	1	n/a
65.486	3.0	controlItem	n/a	n/a	31021	10	21	462	4	0	n/a
68.4851	3.0	controlItem	Foil1	0.764	31021	10	21	463	4	3	controlFoil1
72.001	3.5	controlItem	n/a	n/a	11049	10	49	464	4	1	n/a
75.4842	3.0	controlItem	n/a	n/a	71049	10	49	465	4	0	n/a
78.4839	3.0	controlItem	True	0.512	71049	10	49	466	4	7	controlTrue
82.0006	3.5	controlItem	n/a	n/a	11046	10	46	467	4	1	n/a
85.4845	3.0	controlItem	n/a	n/a	61046	10	46	468	4	0	n/a
88.4826	3.0	controlItem	Foil1	0.721	61046	10	46	469	4	6	controlFoil1
91.999	3.5	controlItem	n/a	n/a	11038	10	38	470	4	1	n/a
95.4828	3.0	controlItem	n/a	n/a	51038	10	38	471	4	0	n/a
98.4828	3.0	controlItem	Foil2	1.784	51038	10	38	472	4	5	controlFoil2
102.015	3.5	criticalItem	n/a	n/a	11003	10	3	473	4	1	n/a
105.498	3.0	criticalItem	n/a	n/a	71003	10	3	474	4	0	n/a
108.498	3.0	criticalItem	True	0.601	71003	10	3	475	4	7	criticalTrue
112.014	3.5	controlItem	n/a	n/a	11029	10	29	476	4	1	n/a
115.497	3.0	controlItem	n/a	n/a	51029	10	29	477	4	0	n/a
118.497	3.0	controlItem	True	0.698	51029	10	29	478	4	5	controlTrue
122.014	3.5	criticalItem	n/a	n/a	11008	10	8	479	4	1	n/a
125.495	3.0	criticalItem	n/a	n/a	41008	10	8	480	4	0	n/a
128.495	3.0	criticalItem	True	0.605	41008	10	8	481	4	4	criticalTrue
132.012	3.5	criticalItem	n/a	n/a	11035	10	35	482	4	1	n/a
135.495	3.0	criticalItem	n/a	n/a	71035	10	35	483	4	0	n/a
138.496	3.0	criticalItem	Foil	0.456	71035	10	35	484	4	7	criticalFoil
142.011	3.5	criticalItem	n/a	n/a	11033	10	33	485	4	1	n/a
145.494	3.0	criticalItem	n/a	n/a	41033	10	33	486	4	0	n/a
148.494	3.0	criticalItem	False	1.044	41033	10	33	487	4	4	criticalFalse
152.01	3.5	controlItem	n/a	n/a	11028	10	28	488	4	1	n/a
155.493	3.0	controlItem	n/a	n/a	21028	10	28	489	4	0	n/a
158.492	3.0	controlItem	True	0.618	21028	10	28	490	4	2	controlTrue
162.008	3.5	controlItem	n/a	n/a	11040	10	40	491	4	1	n/a
165.493	3.0	controlItem	n/a	n/a	51040	10	40	492	4	0	n/a
168.492	3.0	controlItem	True	0.782	51040	10	40	493	4	5	controlTrue
172.008	3.5	criticalItem	n/a	n/a	11026	10	26	494	4	1	n/a
175.491	3.0	criticalItem	n/a	n/a	41026	10	26	495	4	0	n/a
178.491	3.0	criticalItem	False	0.513	41026	10	26	496	4	4	criticalFalse
182.007	3.5	controlItem	n/a	n/a	11031	10	31	497	4	1	n/a
185.49	3.0	controlItem	n/a	n/a	71031	10	31	498	4	0	n/a
188.489	3.0	controlItem	True	0.534	71031	10	31	499	4	7	controlTrue
192.007	3.5	criticalItem	n/a	n/a	11018	10	18	500	4	1	n/a
195.488	3.0	criticalItem	n/a	n/a	61018	10	18	501	4	0	n/a
198.489	3.0	criticalItem	True	0.769	61018	10	18	502	4	6	criticalTrue
202.005	3.5	criticalItem	n/a	n/a	11045	10	45	503	4	1	n/a
205.488	3.0	criticalItem	n/a	n/a	71045	10	45	504	4	0	n/a
208.488	3.0	criticalItem	True	0.555	71045	10	45	505	4	7	criticalTrue
212.004	3.5	criticalItem	n/a	n/a	11005	10	5	506	4	1	n/a
215.487	3.0	criticalItem	n/a	n/a	51005	10	5	507	4	0	n/a
218.486	3.0	criticalItem	True	0.495	51005	10	5	508	4	5	criticalTrue
222.003	3.5	criticalItem	n/a	n/a	11015	10	15	509	4	1	n/a
225.485	3.0	criticalItem	n/a	n/a	51015	10	15	510	4	0	n/a
228.486	3.0	criticalItem	True	0.726	51015	10	15	511	4	5	criticalTrue
232.003	3.5	criticalItem	n/a	n/a	11010	10	10	512	4	1	n/a
235.486	3.0	criticalItem	n/a	n/a	61010	10	10	513	4	0	n/a
238.486	3.0	criticalItem	True	0.691	61010	10	10	514	4	6	criticalTrue
242.001	3.5	controlItem	n/a	n/a	11037	10	37	515	4	1	n/a
245.484	3.0	controlItem	n/a	n/a	71037	10	37	516	4	0	n/a
248.484	3.0	controlItem	True	1.798	71037	10	37	517	4	7	controlTrue
251.999	n/a	n/a	n/a	n/a	91000	10	0	518	4	9	n/a
256.016	n/a	n/a	n/a	n/a	80400	4	0	519	4	8	n/a
266.015	3.5	controlItem	n/a	n/a	10448	4	48	520	4	1	n/a
269.498	3.0	controlItem	n/a	n/a	40448	4	48	521	4	0	n/a
272.497	3.0	controlItem	True	1.771	40448	4	48	522	4	4	controlTrue
276.014	3.5	criticalItem	n/a	n/a	10440	4	40	523	4	1	n/a
279.497	3.0	criticalItem	n/a	n/a	70440	4	40	524	4	0	n/a
282.497	3.0	criticalItem	True	0.826	70440	4	40	525	4	7	criticalTrue
286.014	3.5	criticalItem	n/a	n/a	10411	4	11	526	4	1	n/a
289.497	3.0	criticalItem	n/a	n/a	70411	4	11	527	4	0	n/a
292.496	3.0	criticalItem	False	0.66	70411	4	11	528	4	7	criticalFalse
296.012	3.5	controlItem	n/a	n/a	10443	4	43	529	4	1	n/a
299.494	3.0	controlItem	n/a	n/a	20443	4	43	530	4	0	n/a
302.494	3.0	controlItem	True	0.988	20443	4	43	531	4	2	controlTrue
306.011	3.5	controlItem	n/a	n/a	10430	4	30	532	4	1	n/a
309.495	3.0	controlItem	n/a	n/a	30430	4	30	533	4	0	n/a
312.493	3.0	controlItem	True	1.066	30430	4	30	534	4	3	controlTrue
316.01	3.5	controlItem	n/a	n/a	10425	4	25	535	4	1	n/a
319.494	3.0	controlItem	n/a	n/a	70425	4	25	536	4	0	n/a
322.494	3.0	controlItem	True	0.571	70425	4	25	537	4	7	controlTrue
326.009	3.5	controlItem	n/a	n/a	10442	4	42	538	4	1	n/a
329.492	3.0	controlItem	n/a	n/a	70442	4	42	539	4	0	n/a
332.493	3.0	controlItem	True	0.47	70442	4	42	540	4	7	controlTrue
336.008	3.5	criticalItem	n/a	n/a	10449	4	49	541	4	1	n/a
339.491	3.0	criticalItem	n/a	n/a	30449	4	49	542	4	0	n/a
342.49	3.0	criticalItem	False	0.599	30449	4	49	543	4	3	criticalFalse
346.007	3.5	criticalItem	n/a	n/a	10436	4	36	544	4	1	n/a
349.491	3.0	criticalItem	n/a	n/a	50436	4	36	545	4	0	n/a
352.49	3.0	criticalItem	True	0.687	50436	4	36	546	4	5	criticalTrue
356.007	3.5	controlItem	n/a	n/a	10444	4	44	547	4	1	n/a
359.489	3.0	controlItem	n/a	n/a	30444	4	44	548	4	0	n/a
362.49	3.0	controlItem	Foil2	0.429	30444	4	44	549	4	3	controlFoil2
366.005	3.5	criticalItem	n/a	n/a	10407	4	7	550	4	1	n/a
369.489	3.0	criticalItem	n/a	n/a	20407	4	7	551	4	0	n/a
372.487	3.0	criticalItem	False	0.812	20407	4	7	552	4	2	criticalFalse
376.004	3.5	criticalItem	n/a	n/a	10438	4	38	553	4	1	n/a
379.488	3.0	criticalItem	n/a	n/a	60438	4	38	554	4	0	n/a
382.487	3.0	criticalItem	False	0.669	60438	4	38	555	4	6	criticalFalse
386.003	3.5	criticalItem	n/a	n/a	10424	4	24	556	4	1	n/a
389.487	3.0	criticalItem	n/a	n/a	60424	4	24	557	4	0	n/a
392.487	3.0	criticalItem	Foil	0.551	60424	4	24	558	4	6	criticalFoil
396.002	3.5	controlItem	n/a	n/a	10446	4	46	559	4	1	n/a
399.484	3.0	controlItem	n/a	n/a	40446	4	46	560	4	0	n/a
402.484	3.0	controlItem	True	0.78	40446	4	46	561	4	4	controlTrue
406	3.5	controlItem	n/a	n/a	10422	4	22	562	4	1	n/a
409.485	3.0	controlItem	ForbiddenKey	1.572	50422	4	22	563	4	0	n/a
412.484	3.0	controlItem	Foil2	0.38	50422	4	22	564	4	5	controlFoil2
415.999	3.5	criticalItem	n/a	n/a	10415	4	15	565	4	1	n/a
419.482	3.0	criticalItem	n/a	n/a	20415	4	15	566	4	0	n/a
422.484	3.0	criticalItem	False	1.025	20415	4	15	567	4	2	criticalFalse
425.999	3.5	criticalItem	n/a	n/a	10417	4	17	568	4	1	n/a
429.483	3.0	criticalItem	n/a	n/a	60417	4	17	569	4	0	n/a
432.481	3.0	criticalItem	True	1.128	60417	4	17	570	4	6	criticalTrue
436.016	3.5	criticalItem	n/a	n/a	10419	4	19	571	4	1	n/a
439.498	3.0	criticalItem	n/a	n/a	30419	4	19	572	4	0	n/a
442.497	3.0	criticalItem	False	0.57	30419	4	19	573	4	3	criticalFalse
446.014	3.5	controlItem	n/a	n/a	10409	4	9	574	4	1	n/a
449.497	3.0	controlItem	n/a	n/a	70409	4	9	575	4	0	n/a
452.498	3.0	controlItem	True	0.664	70409	4	9	576	4	7	controlTrue
456.013	3.5	controlItem	n/a	n/a	10416	4	16	577	4	1	n/a
459.496	3.0	controlItem	n/a	n/a	30416	4	16	578	4	0	n/a
462.495	3.0	controlItem	Foil1	0.676	30416	4	16	579	4	3	controlFoil1
466.012	3.5	criticalItem	n/a	n/a	10404	4	4	580	4	1	n/a
469.495	3.0	criticalItem	n/a	n/a	30404	4	4	581	4	0	n/a
472.495	3.0	criticalItem	Foil	1.22	30404	4	4	582	4	3	criticalFoil
476.01	3.5	controlItem	n/a	n/a	10412	4	12	583	4	1	n/a
479.493	3.0	controlItem	n/a	n/a	30412	4	12	584	4	0	n/a
482.493	3.0	controlItem	True	0.828	30412	4	12	585	4	3	controlTrue
486.01	3.5	controlItem	n/a	n/a	10450	4	50	586	4	1	n/a
489.493	3.0	controlItem	n/a	n/a	50450	4	50	587	4	0	n/a
492.492	3.0	controlItem	True	0.614	50450	4	50	588	4	5	controlTrue
496.009	3.5	criticalItem	n/a	n/a	10429	4	29	589	4	1	n/a
499.491	3.0	criticalItem	n/a	n/a	50429	4	29	590	4	0	n/a
502.492	3.0	criticalItem	True	0.869	50429	4	29	591	4	5	criticalTrue
506.009	n/a	n/a	n/a	n/a	90400	4	0	592	4	9	n/a
