onset	duration	trial_type	response	response_time	stim_id	stim_version	stim_events	stim_slides	trial_id	run_id	stim_redcross	subsequent_response_type
2.0255	n/a	n/a	n/a	n/a	80700	8	7	0	1	1	n/a	n/a
6.0209	3.5	genericItem	n/a	n/a	10701	1	7	1	2	1	n/a	n/a
10.0207	3.5	genericItem	n/a	n/a	10702	1	7	2	3	1	n/a	n/a
14.0215	3.5	controlItem	n/a	n/a	10703	1	7	3	4	1	n/a	controlTrue
18.0207	3.5	criticalItem	n/a	n/a	10704	1	7	4	5	1	n/a	criticalFoil
22.0219	3.5	controlItem	n/a	n/a	10705	1	7	5	6	1	n/a	controlTrue
26.0215	3.5	genericItem	n/a	n/a	10706	1	7	6	7	1	n/a	n/a
30.0216	3.5	controlItem	n/a	n/a	10707	1	7	7	8	1	n/a	controlTrue
34.0214	3.5	controlItem	n/a	n/a	10708	1	7	8	9	1	n/a	controlTrue
38.0209	3.5	criticalItem	n/a	n/a	10709	1	7	9	10	1	n/a	criticalTrue
42.0217	3.5	genericItem	n/a	n/a	10710	1	7	10	11	1	n/a	n/a
46.0222	3.5	controlItem	n/a	n/a	10711	1	7	11	12	1	n/a	controlFoil1
50.0227	3.5	criticalItem	n/a	n/a	10712	1	7	12	13	1	n/a	criticalTrue
54.0211	3.5	genericItem	n/a	n/a	10713	1	7	13	14	1	n/a	n/a
58.0212	3.5	controlItem	n/a	n/a	10714	1	7	14	15	1	n/a	controlTrue
62.0207	3.5	genericItem	n/a	n/a	10715	1	7	15	16	1	n/a	n/a
66.0212	3.5	genericItem	n/a	n/a	10716	1	7	16	17	1	n/a	n/a
70.0207	3.5	genericItem	1	0.472	10717	1	7	17	18	1	1	n/a
74.0211	3.5	controlItem	n/a	n/a	10718	1	7	18	19	1	n/a	controlTrue
78.0205	3.5	criticalItem	n/a	n/a	10719	1	7	19	20	1	n/a	criticalFalse
82.0216	3.5	controlItem	n/a	n/a	10720	1	7	20	21	1	n/a	controlFoil1
86.0211	3.5	criticalItem	n/a	n/a	10721	1	7	21	22	1	n/a	criticalTrue
90.0215	3.5	genericItem	n/a	n/a	10722	1	7	22	23	1	n/a	n/a
94.0217	3.5	genericItem	n/a	n/a	10723	1	7	23	24	1	n/a	n/a
98.021	3.5	genericItem	n/a	n/a	10724	1	7	24	25	1	n/a	n/a
102.021	3.5	genericItem	n/a	n/a	10725	1	7	25	26	1	n/a	n/a
106.021	3.5	criticalItem	n/a	n/a	10726	1	7	26	27	1	n/a	criticalFalse
110.022	3.5	genericItem	n/a	n/a	10727	1	7	27	28	1	n/a	n/a
114.021	3.5	controlItem	n/a	n/a	10728	1	7	28	29	1	n/a	controlTrue
118.02	3.5	criticalItem	n/a	n/a	10729	1	7	29	30	1	n/a	criticalTrue
122.02	3.5	genericItem	n/a	n/a	10730	1	7	30	31	1	n/a	n/a
126.019	3.5	genericItem	n/a	n/a	10731	1	7	31	32	1	n/a	n/a
130.022	3.5	genericItem	n/a	n/a	10732	1	7	32	33	1	n/a	n/a
134.02	3.5	genericItem	1	0.545	10733	1	7	33	34	1	1	n/a
138.02	3.5	controlItem	n/a	n/a	10734	1	7	34	35	1	n/a	controlFoil1
142.022	3.5	criticalItem	n/a	n/a	10735	1	7	35	36	1	n/a	criticalFalse
146.02	3.5	genericItem	n/a	n/a	10736	1	7	36	37	1	n/a	n/a
150.021	3.5	genericItem	n/a	n/a	10737	1	7	37	38	1	n/a	n/a
154.021	3.5	genericItem	n/a	n/a	10738	1	7	38	39	1	n/a	n/a
158.021	3.5	criticalItem	n/a	n/a	10739	1	7	39	40	1	n/a	criticalFalse
162.02	3.5	controlItem	n/a	n/a	10740	1	7	40	41	1	n/a	controlTrue
166.022	3.5	genericItem	n/a	n/a	10741	1	7	41	42	1	n/a	n/a
170.02	3.5	genericItem	n/a	n/a	10742	1	7	42	43	1	n/a	n/a
174.021	3.5	genericItem	n/a	n/a	10743	1	7	43	44	1	n/a	n/a
178.02	3.5	criticalItem	n/a	n/a	10744	1	7	44	45	1	n/a	criticalTrue
182.02	3.5	genericItem	n/a	n/a	10745	1	7	45	46	1	n/a	n/a
186.02	3.5	criticalItem	n/a	n/a	10746	1	7	46	47	1	n/a	criticalTrue
190.021	3.5	genericItem	n/a	n/a	10747	1	7	47	48	1	n/a	n/a
194.02	3.5	genericItem	n/a	n/a	10748	1	7	48	49	1	n/a	n/a
198.021	3.5	criticalItem	n/a	n/a	10749	1	7	49	50	1	n/a	criticalTrue
202.019	3.5	controlItem	n/a	n/a	10750	1	7	50	51	1	n/a	controlFoil2
206.021	n/a	n/a	n/a	n/a	90700	9	7	0	52	1	n/a	n/a
210.021	n/a	n/a	n/a	n/a	80300	8	3	0	53	1	n/a	n/a
214.02	3.5	genericItem	1	0.57	10301	1	3	1	54	1	1	n/a
218.021	3.5	genericItem	n/a	n/a	10302	1	3	2	55	1	n/a	n/a
222.021	3.5	controlItem	n/a	n/a	10303	1	3	3	56	1	n/a	controlTrue
226.02	3.5	genericItem	n/a	n/a	10304	1	3	4	57	1	n/a	n/a
230.021	3.5	criticalItem	n/a	n/a	20305	2	3	5	58	1	n/a	criticalTrue
234.021	3.5	genericItem	n/a	n/a	10306	1	3	6	59	1	n/a	n/a
238.022	3.5	genericItem	1	0.498	10307	1	3	7	60	1	1	n/a
242.02	3.5	genericItem	n/a	n/a	10308	1	3	8	61	1	n/a	n/a
246.021	3.5	controlItem	n/a	n/a	10309	1	3	9	62	1	n/a	controlFoil2
250.021	3.5	genericItem	n/a	n/a	10310	1	3	10	63	1	n/a	n/a
254.021	3.5	genericItem	n/a	n/a	10311	1	3	11	64	1	n/a	n/a
258.02	3.5	genericItem	1	0.483	10312	1	3	12	65	1	1	n/a
262.02	3.5	controlItem	n/a	n/a	10313	1	3	13	66	1	n/a	controlTrue
266.02	3.5	genericItem	n/a	n/a	10314	1	3	14	67	1	n/a	n/a
270.022	3.5	genericItem	n/a	n/a	10315	1	3	15	68	1	n/a	n/a
274.02	3.5	criticalItem	n/a	n/a	20316	2	3	16	69	1	n/a	criticalFalse
278.021	3.5	controlItem	n/a	n/a	10317	1	3	17	70	1	n/a	controlTrue
282.02	3.5	genericItem	n/a	n/a	10318	1	3	18	71	1	n/a	n/a
286.021	3.5	criticalItem	n/a	n/a	20319	2	3	19	72	1	n/a	criticalTrue
290.02	3.5	controlItem	n/a	n/a	10320	1	3	20	73	1	n/a	controlFoil2
294.021	3.5	genericItem	n/a	n/a	10321	1	3	21	74	1	n/a	n/a
298.021	3.5	criticalItem	n/a	n/a	20322	2	3	22	75	1	n/a	criticalFoil
302.022	3.5	genericItem	n/a	n/a	10323	1	3	23	76	1	n/a	n/a
306.02	3.5	criticalItem	n/a	n/a	20324	2	3	24	77	1	n/a	criticalTrue
310.02	3.5	controlItem	n/a	n/a	10325	1	3	25	78	1	n/a	controlFoil1
314.02	3.5	genericItem	n/a	n/a	10326	1	3	26	79	1	1	n/a
318.021	3.5	criticalItem	n/a	n/a	20327	2	3	27	80	1	n/a	criticalTrue
322.02	3.5	genericItem	n/a	n/a	10328	1	3	28	81	1	n/a	n/a
326.021	3.5	controlItem	n/a	n/a	10329	1	3	29	82	1	n/a	controlTrue
330.02	3.5	criticalItem	n/a	n/a	20330	2	3	30	83	1	n/a	criticalTrue
334.022	3.5	controlItem	n/a	n/a	10331	1	3	31	84	1	n/a	controlTrue
338.02	3.5	criticalItem	n/a	n/a	20332	2	3	32	85	1	n/a	criticalTrue
342.021	3.5	genericItem	n/a	n/a	10333	1	3	33	86	1	n/a	n/a
346.02	3.5	genericItem	n/a	n/a	10334	1	3	34	87	1	n/a	n/a
350.021	3.5	genericItem	n/a	n/a	10335	1	3	35	88	1	n/a	n/a
354.02	3.5	criticalItem	n/a	n/a	20336	2	3	36	89	1	n/a	criticalFalse
358.023	3.5	genericItem	n/a	n/a	10337	1	3	37	90	1	n/a	n/a
362.022	3.5	genericItem	n/a	n/a	10338	1	3	38	91	1	n/a	n/a
366.022	3.5	genericItem	n/a	n/a	10339	1	3	39	92	1	n/a	n/a
370.021	3.5	genericItem	n/a	n/a	10340	1	3	40	93	1	n/a	n/a
374.021	3.5	criticalItem	n/a	n/a	20341	2	3	41	94	1	n/a	criticalFoil
378.021	3.5	controlItem	n/a	n/a	10342	1	3	42	95	1	n/a	controlTrue
382.023	3.5	genericItem	n/a	n/a	10343	1	3	43	96	1	n/a	n/a
386.022	3.5	criticalItem	n/a	n/a	20344	2	3	44	97	1	n/a	criticalFalse
390.022	3.5	controlItem	n/a	n/a	10345	1	3	45	98	1	n/a	controlTrue
394.021	3.5	genericItem	n/a	n/a	10346	1	3	46	99	1	n/a	n/a
398.021	3.5	criticalItem	n/a	n/a	20347	2	3	47	100	1	n/a	criticalFalse
402.022	3.5	controlItem	n/a	n/a	10348	1	3	48	101	1	n/a	controlTrue
406.021	3.5	genericItem	n/a	n/a	10349	1	3	49	102	1	n/a	n/a
410.022	3.5	controlItem	n/a	n/a	10350	1	3	50	103	1	n/a	controlTrue
414.021	n/a	n/a	n/a	n/a	90300	9	3	0	104	1	n/a	n/a
418.022	n/a	n/a	n/a	n/a	90000	5	0	0	105	1	n/a	n/a
