onset	duration	trial_type	response	response_time	stim_id	stim_events	stim_slides	trial_id	run_id	stim_type	response_type
2.0091	n/a	n/a	n/a	n/a	80400	4	0	149	2	8	n/a
12.0079	3.5	criticalItem	n/a	n/a	10404	4	4	150	2	1	n/a
15.491	3.0	criticalItem	n/a	n/a	50404	4	4	151	2	0	n/a
18.4905	3.0	criticalItem	True	0.401	50404	4	4	152	2	5	criticalTrue
22.006	3.5	criticalItem	n/a	n/a	10419	4	19	153	2	1	n/a
25.4906	3.0	criticalItem	n/a	n/a	40419	4	19	154	2	0	n/a
28.4898	3.0	criticalItem	True	0.955	40419	4	19	155	2	4	criticalTrue
32.0055	3.5	controlItem	n/a	n/a	10450	4	50	156	2	1	n/a
35.4886	3.0	controlItem	n/a	n/a	30450	4	50	157	2	0	n/a
38.4882	3.0	controlItem	True	0.534	30450	4	50	158	2	3	controlTrue
42.0049	3.5	controlItem	n/a	n/a	10422	4	22	159	2	1	n/a
45.4885	3.0	controlItem	n/a	n/a	30422	4	22	160	2	0	n/a
48.4873	3.0	controlItem	True	0.886	30422	4	22	161	2	3	controlTrue
52.0051	3.5	controlItem	n/a	n/a	10444	4	44	162	2	1	n/a
55.486	3.0	controlItem	n/a	n/a	60444	4	44	163	2	0	n/a
58.4865	3.0	controlItem	Foil2	0.712	60444	4	44	164	2	6	controlFoil2
62.0025	3.5	criticalItem	n/a	n/a	10411	4	11	165	2	1	n/a
65.4854	3.0	criticalItem	n/a	n/a	70411	4	11	166	2	0	n/a
68.4859	3.0	criticalItem	True	0.486	70411	4	11	167	2	7	criticalTrue
72.0025	3.5	criticalItem	n/a	n/a	10415	4	15	168	2	1	n/a
75.4844	3.0	criticalItem	n/a	n/a	50415	4	15	169	2	0	n/a
78.4849	3.0	criticalItem	False	0.628	50415	4	15	170	2	5	criticalFalse
82.0013	3.5	controlItem	n/a	n/a	10425	4	25	171	2	1	n/a
85.4838	3.0	controlItem	n/a	n/a	30425	4	25	172	2	0	n/a
88.4826	3.0	controlItem	True	1.61	30425	4	25	173	2	3	controlTrue
91.9992	3.5	criticalItem	n/a	n/a	10429	4	29	174	2	1	n/a
95.4831	3.0	criticalItem	n/a	n/a	60429	4	29	175	2	0	n/a
98.483	3.0	criticalItem	True	0.861	60429	4	29	176	2	6	criticalTrue
102.016	3.5	criticalItem	n/a	n/a	10436	4	36	177	2	1	n/a
105.498	3.0	criticalItem	n/a	n/a	60436	4	36	178	2	0	n/a
108.498	3.0	criticalItem	False	0.898	60436	4	36	179	2	6	criticalFalse
112	3.5	controlItem	n/a	n/a	10448	4	48	180	2	1	n/a
115.48	3.0	controlItem	n/a	n/a	20448	4	48	181	2	0	n/a
118.481	3.0	controlItem	Foil1	0.96	20448	4	48	182	2	2	controlFoil1
122.015	3.5	controlItem	n/a	n/a	10430	4	30	183	2	1	n/a
125.496	3.0	controlItem	n/a	n/a	20430	4	30	184	2	0	n/a
128.496	3.0	controlItem	Foil2	1.138	20430	4	30	185	2	2	controlFoil2
132.012	3.5	controlItem	n/a	n/a	10412	4	12	186	2	1	n/a
135.495	3.0	controlItem	n/a	n/a	50412	4	12	187	2	0	n/a
138.495	3.0	controlItem	True	0.579	50412	4	12	188	2	5	controlTrue
142.011	3.5	criticalItem	n/a	n/a	10438	4	38	189	2	1	n/a
145.496	3.0	criticalItem	n/a	n/a	20438	4	38	190	2	0	n/a
148.494	3.0	criticalItem	True	1.282	20438	4	38	191	2	2	criticalTrue
152.01	3.5	criticalItem	n/a	n/a	10417	4	17	192	2	1	n/a
155.495	3.0	criticalItem	n/a	n/a	50417	4	17	193	2	0	n/a
158.493	3.0	criticalItem	True	1.31	50417	4	17	194	2	5	criticalTrue
162.008	3.5	controlItem	n/a	n/a	10416	4	16	195	2	1	n/a
165.492	3.0	controlItem	n/a	n/a	70416	4	16	196	2	0	n/a
168.492	3.0	controlItem	Foil1	0.444	70416	4	16	197	2	7	controlFoil1
172.008	3.5	criticalItem	n/a	n/a	10424	4	24	198	2	1	n/a
175.491	3.0	criticalItem	n/a	n/a	50424	4	24	199	2	0	n/a
178.491	3.0	criticalItem	True	0.449	50424	4	24	200	2	5	criticalTrue
182.007	3.5	controlItem	n/a	n/a	10446	4	46	201	2	1	n/a
185.49	3.0	controlItem	n/a	n/a	50446	4	46	202	2	0	n/a
188.49	3.0	controlItem	True	0.641	50446	4	46	203	2	5	controlTrue
192.006	3.5	controlItem	n/a	n/a	10443	4	43	204	2	1	n/a
195.489	3.0	controlItem	n/a	n/a	40443	4	43	205	2	0	n/a
198.489	3.0	controlItem	True	1.185	40443	4	43	206	2	4	controlTrue
202.006	3.5	criticalItem	n/a	n/a	10440	4	40	207	2	1	n/a
205.488	3.0	criticalItem	n/a	n/a	30440	4	40	208	2	0	n/a
208.489	3.0	criticalItem	True	0.613	30440	4	40	209	2	3	criticalTrue
212.005	3.5	controlItem	n/a	n/a	10409	4	9	210	2	1	n/a
215.488	3.0	controlItem	n/a	n/a	50409	4	9	211	2	0	n/a
218.487	3.0	controlItem	True	0.422	50409	4	9	212	2	5	controlTrue
222.003	3.5	controlItem	n/a	n/a	10442	4	42	213	2	1	n/a
225.486	3.0	controlItem	n/a	n/a	70442	4	42	214	2	0	n/a
228.486	3.0	controlItem	True	0.409	70442	4	42	215	2	7	controlTrue
232.002	3.5	criticalItem	n/a	n/a	10449	4	49	216	2	1	n/a
235.485	3.0	criticalItem	n/a	n/a	20449	4	49	217	2	0	n/a
238.485	3.0	criticalItem	True	0.548	20449	4	49	218	2	2	criticalTrue
242.001	3.5	criticalItem	n/a	n/a	10407	4	7	219	2	1	n/a
245.485	3.0	criticalItem	n/a	n/a	30407	4	7	220	2	0	n/a
248.484	3.0	criticalItem	False	0.579	30407	4	7	221	2	3	criticalFalse
252	n/a	n/a	n/a	n/a	90400	4	0	222	2	9	n/a
256	n/a	n/a	n/a	n/a	81000	10	0	223	2	8	n/a
266.015	3.5	controlItem	n/a	n/a	11028	10	28	224	2	1	n/a
269.499	3.0	controlItem	n/a	n/a	51028	10	28	225	2	0	n/a
272.499	3.0	controlItem	True	1.318	51028	10	28	226	2	5	controlTrue
276.014	3.5	criticalItem	n/a	n/a	11015	10	15	227	2	1	n/a
279.498	3.0	criticalItem	n/a	n/a	71015	10	15	228	2	0	n/a
282.498	3.0	criticalItem	True	1.135	71015	10	15	229	2	7	criticalTrue
286.013	3.5	controlItem	n/a	n/a	11039	10	39	230	2	1	n/a
289.496	3.0	controlItem	n/a	n/a	71039	10	39	231	2	0	n/a
292.496	3.0	controlItem	Foil1	0.76	71039	10	39	232	2	7	controlFoil1
296.013	3.5	controlItem	n/a	n/a	11040	10	40	233	2	1	n/a
299.495	3.0	controlItem	n/a	n/a	31040	10	40	234	2	0	n/a
302.495	3.0	controlItem	Foil1	1.943	31040	10	40	235	2	3	controlFoil1
306.011	3.5	criticalItem	n/a	n/a	11045	10	45	236	2	1	n/a
309.494	3.0	criticalItem	n/a	n/a	41045	10	45	237	2	0	n/a
312.495	3.0	criticalItem	False	0.523	41045	10	45	238	2	4	criticalFalse
316.01	3.5	controlItem	n/a	n/a	11031	10	31	239	2	1	n/a
319.494	3.0	controlItem	n/a	n/a	71031	10	31	240	2	0	n/a
322.493	3.0	controlItem	Foil1	2.049	71031	10	31	241	2	7	controlFoil1
326.009	3.5	criticalItem	n/a	n/a	11005	10	5	242	2	1	n/a
329.493	3.0	criticalItem	n/a	n/a	71005	10	5	243	2	0	n/a
332.492	3.0	criticalItem	True	0.615	71005	10	5	244	2	7	criticalTrue
336.008	3.5	controlItem	n/a	n/a	11021	10	21	245	2	1	n/a
339.491	3.0	controlItem	n/a	n/a	51021	10	21	246	2	0	n/a
342.492	3.0	controlItem	True	0.8	51021	10	21	247	2	5	controlTrue
346.007	3.5	criticalItem	n/a	n/a	11026	10	26	248	2	1	n/a
349.49	3.0	criticalItem	n/a	n/a	51026	10	26	249	2	0	n/a
352.492	3.0	criticalItem	False	0.736	51026	10	26	250	2	5	criticalFalse
356.006	3.5	criticalItem	n/a	n/a	11023	10	23	251	2	1	n/a
359.489	3.0	criticalItem	n/a	n/a	41023	10	23	252	2	0	n/a
362.489	3.0	criticalItem	True	0.791	41023	10	23	253	2	4	criticalTrue
366.005	3.5	controlItem	n/a	n/a	11017	10	17	254	2	1	n/a
369.49	3.0	controlItem	n/a	n/a	31017	10	17	255	2	0	n/a
372.488	3.0	controlItem	Foil1	2.793	31017	10	17	256	2	3	controlFoil1
376.004	3.5	controlItem	n/a	n/a	11038	10	38	257	2	1	n/a
379.488	3.0	controlItem	n/a	n/a	61038	10	38	258	2	0	n/a
382.487	3.0	controlItem	True	0.415	61038	10	38	259	2	6	controlTrue
386.003	3.5	controlItem	n/a	n/a	11029	10	29	260	2	1	n/a
389.487	3.0	controlItem	n/a	n/a	71029	10	29	261	2	0	n/a
392.487	3.0	controlItem	True	1.361	71029	10	29	262	2	7	controlTrue
396.003	3.5	criticalItem	n/a	n/a	11008	10	8	263	2	1	n/a
399.486	3.0	criticalItem	n/a	n/a	31008	10	8	264	2	0	n/a
402.485	3.0	criticalItem	True	0.392	31008	10	8	265	2	3	criticalTrue
406.002	3.5	criticalItem	n/a	n/a	11010	10	10	266	2	1	n/a
409.485	3.0	criticalItem	n/a	n/a	61010	10	10	267	2	0	n/a
412.486	3.0	criticalItem	True	0.469	61010	10	10	268	2	6	criticalTrue
416.001	3.5	criticalItem	n/a	n/a	11018	10	18	269	2	1	n/a
419.485	3.0	criticalItem	n/a	n/a	71018	10	18	270	2	0	n/a
422.484	3.0	criticalItem	True	0.525	71018	10	18	271	2	7	criticalTrue
425.999	3.5	criticalItem	n/a	n/a	11035	10	35	272	2	1	n/a
429.482	3.0	criticalItem	n/a	n/a	71035	10	35	273	2	0	n/a
432.482	3.0	criticalItem	True	0.732	71035	10	35	274	2	7	criticalTrue
436.016	3.5	controlItem	n/a	n/a	11019	10	19	275	2	1	n/a
439.499	3.0	controlItem	n/a	n/a	41019	10	19	276	2	0	n/a
442.498	3.0	controlItem	True	1.11	41019	10	19	277	2	4	controlTrue
446.013	3.5	controlItem	n/a	n/a	11037	10	37	278	2	1	n/a
449.497	3.0	controlItem	n/a	n/a	71037	10	37	279	2	0	n/a
452.498	3.0	controlItem	True	1.431	71037	10	37	280	2	7	controlTrue
456.014	3.5	controlItem	n/a	n/a	11049	10	49	281	2	1	n/a
459.496	3.0	controlItem	n/a	n/a	51049	10	49	282	2	0	n/a
462.495	3.0	controlItem	True	0.493	51049	10	49	283	2	5	controlTrue
466.012	3.5	controlItem	n/a	n/a	11046	10	46	284	2	1	n/a
469.497	3.0	controlItem	n/a	n/a	41046	10	46	285	2	0	n/a
472.495	3.0	controlItem	Foil2	0.643	41046	10	46	286	2	4	controlFoil2
476.011	3.5	criticalItem	n/a	n/a	11033	10	33	287	2	1	n/a
479.494	3.0	criticalItem	n/a	n/a	41033	10	33	288	2	0	n/a
482.495	3.0	criticalItem	Foil	0.862	41033	10	33	289	2	4	criticalFoil
486.01	3.5	criticalItem	n/a	n/a	11020	10	20	290	2	1	n/a
489.494	3.0	criticalItem	n/a	n/a	51020	10	20	291	2	0	n/a
492.493	3.0	criticalItem	True	1.264	51020	10	20	292	2	5	criticalTrue
496.008	3.5	criticalItem	n/a	n/a	11003	10	3	293	2	1	n/a
499.492	3.0	criticalItem	n/a	n/a	71003	10	3	294	2	0	n/a
502.492	3.0	criticalItem	Foil	1.219	71003	10	3	295	2	7	criticalFoil
506.008	n/a	n/a	n/a	n/a	91000	10	0	296	2	9	n/a
