onset	duration	trial_type	response	response_time	stim_id	stim_version	stim_events	stim_slides	trial_id	run_id	stim_redcross	subsequent_response_type
2.0362	n/a	n/a	n/a	n/a	80400	8	4	0	106	2	n/a	n/a
6.0311	3.5	genericItem	n/a	n/a	10401	1	4	1	107	2	n/a	n/a
10.0298	3.5	genericItem	n/a	n/a	10402	1	4	2	108	2	n/a	n/a
14.0282	3.5	genericItem	n/a	n/a	10403	1	4	3	109	2	n/a	n/a
18.3321	3.5	criticalItem	n/a	n/a	10404	1	4	4	110	2	n/a	criticalFalse
22.0286	3.5	genericItem	n/a	n/a	10405	1	4	5	111	2	n/a	n/a
26.0289	3.5	genericItem	n/a	n/a	10406	1	4	6	112	2	n/a	n/a
30.0793	3.5	criticalItem	n/a	n/a	10407	1	4	7	113	2	n/a	criticalFalse
34.0287	3.5	genericItem	n/a	n/a	10408	1	4	8	114	2	n/a	n/a
38.0289	3.5	controlItem	n/a	n/a	10409	1	4	9	115	2	n/a	controlTrue
42.0294	3.5	genericItem	1	0.648	10410	1	4	10	116	2	1	n/a
46.4427	3.5	criticalItem	n/a	n/a	10411	1	4	11	117	2	n/a	criticalTrue
50.0275	3.5	controlItem	n/a	n/a	10412	1	4	12	118	2	n/a	controlTrue
54.0285	3.5	genericItem	n/a	n/a	10413	1	4	13	119	2	n/a	n/a
58.0279	3.5	genericItem	n/a	n/a	10414	1	4	14	120	2	n/a	n/a
62.3404	3.5	criticalItem	n/a	n/a	10415	1	4	15	121	2	n/a	criticalTrue
66.0286	3.5	controlItem	n/a	n/a	10416	1	4	16	122	2	n/a	controlTrue
70.6085	3.5	criticalItem	n/a	n/a	10417	1	4	17	123	2	n/a	criticalTrue
74.1399	3.5	genericItem	n/a	n/a	10418	1	4	18	124	2	n/a	n/a
78.0657	3.5	criticalItem	n/a	n/a	10419	1	4	19	125	2	n/a	criticalFalse
82.028	3.5	genericItem	1	0.702	10420	1	4	20	126	2	1	n/a
86.0279	3.5	genericItem	n/a	n/a	10421	1	4	21	127	2	n/a	n/a
90.0293	3.5	controlItem	n/a	n/a	10422	1	4	22	128	2	n/a	controlFoil1
94.0283	3.5	genericItem	n/a	n/a	10423	1	4	23	129	2	n/a	n/a
98.3345	3.5	criticalItem	n/a	n/a	10424	1	4	24	130	2	n/a	criticalFalse
102.028	3.5	controlItem	n/a	n/a	10425	1	4	25	131	2	n/a	controlTrue
106.027	3.5	genericItem	n/a	n/a	10426	1	4	26	132	2	n/a	n/a
110.029	3.5	genericItem	n/a	n/a	10427	1	4	27	133	2	n/a	n/a
114.028	3.5	genericItem	n/a	n/a	10428	1	4	28	134	2	n/a	n/a
118.379	3.5	criticalItem	n/a	n/a	10429	1	4	29	135	2	n/a	criticalTrue
122.027	3.5	controlItem	n/a	n/a	10430	1	4	30	136	2	n/a	controlFoil2
126.029	3.5	genericItem	1	0.621	10431	1	4	31	137	2	1	n/a
130.028	3.5	genericItem	n/a	n/a	10432	1	4	32	138	2	n/a	n/a
134.028	3.5	genericItem	n/a	n/a	10433	1	4	33	139	2	n/a	n/a
138.028	3.5	genericItem	n/a	n/a	10434	1	4	34	140	2	n/a	n/a
142.027	3.5	genericItem	n/a	n/a	10435	1	4	35	141	2	n/a	n/a
146.335	3.5	criticalItem	n/a	n/a	10436	1	4	36	142	2	n/a	criticalFalse
150.027	3.5	genericItem	n/a	n/a	10437	1	4	37	143	2	n/a	n/a
154.335	3.5	criticalItem	n/a	n/a	10438	1	4	38	144	2	n/a	criticalTrue
158.028	3.5	genericItem	n/a	n/a	10439	1	4	39	145	2	n/a	n/a
162.08	3.5	criticalItem	n/a	n/a	10440	1	4	40	146	2	n/a	criticalFalse
166.028	3.5	genericItem	n/a	n/a	10441	1	4	41	147	2	n/a	n/a
170.029	3.5	controlItem	n/a	n/a	10442	1	4	42	148	2	n/a	controlTrue
174.03	3.5	controlItem	n/a	n/a	10443	1	4	43	149	2	n/a	controlTrue
178.03	3.5	controlItem	n/a	n/a	10444	1	4	44	150	2	n/a	controlTrue
182.028	3.5	genericItem	n/a	n/a	10445	1	4	45	151	2	n/a	n/a
186.028	3.5	controlItem	n/a	n/a	10446	1	4	46	152	2	n/a	controlFoil2
190.027	3.5	genericItem	n/a	n/a	10447	1	4	47	153	2	n/a	n/a
194.027	3.5	controlItem	n/a	n/a	10448	1	4	48	154	2	n/a	controlFoil1
198.344	3.5	criticalItem	n/a	n/a	10449	1	4	49	155	2	n/a	criticalTrue
202.026	3.5	controlItem	n/a	n/a	10450	1	4	50	156	2	n/a	controlTrue
206.023	n/a	n/a	n/a	n/a	90400	9	4	0	157	2	n/a	n/a
210.023	n/a	n/a	n/a	n/a	80100	8	1	0	158	2	n/a	n/a
214.031	3.5	genericItem	n/a	n/a	10101	1	1	1	159	2	n/a	n/a
218.031	3.5	genericItem	1	0.733	10102	1	1	2	160	2	1	n/a
222.031	3.5	genericItem	n/a	n/a	10103	1	1	3	161	2	n/a	n/a
226.031	3.5	controlItem	n/a	n/a	10104	1	1	4	162	2	n/a	controlTrue
230.031	3.5	genericItem	n/a	n/a	10105	1	1	5	163	2	n/a	n/a
234.031	3.5	genericItem	n/a	n/a	10106	1	1	6	164	2	n/a	n/a
238.031	3.5	controlItem	n/a	n/a	10107	1	1	7	165	2	n/a	controlTrue
242.032	3.5	genericItem	n/a	n/a	10108	1	1	8	166	2	n/a	n/a
246.031	3.5	genericItem	n/a	n/a	10109	1	1	9	167	2	n/a	n/a
250.326	3.5	criticalItem	n/a	n/a	10110	1	1	10	168	2	n/a	criticalTrue
254.031	3.5	genericItem	n/a	n/a	10111	1	1	11	169	2	n/a	n/a
258.086	3.5	criticalItem	n/a	n/a	10112	1	1	12	170	2	n/a	criticalTrue
262.032	3.5	genericItem	n/a	n/a	10113	1	1	13	171	2	n/a	n/a
266.079	3.5	criticalItem	n/a	n/a	10114	1	1	14	172	2	n/a	criticalFalse
270.031	3.5	genericItem	1	0.616	10115	1	1	15	173	2	1	n/a
274.033	3.5	controlItem	n/a	n/a	10116	1	1	16	174	2	n/a	controlFoil1
278.063	3.5	criticalItem	n/a	n/a	10117	1	1	17	175	2	n/a	criticalFoil
282.031	3.5	controlItem	n/a	n/a	10118	1	1	18	176	2	n/a	controlTrue
286.098	3.5	criticalItem	n/a	n/a	10119	1	1	19	177	2	n/a	criticalTrue
290.031	3.5	genericItem	n/a	n/a	10120	1	1	20	178	2	n/a	n/a
294.032	3.5	controlItem	n/a	n/a	10121	1	1	21	179	2	n/a	controlTrue
298.087	3.5	criticalItem	n/a	n/a	10122	1	1	22	180	2	n/a	criticalFalse
302.031	3.5	controlItem	n/a	n/a	10123	1	1	23	181	2	n/a	controlFoil1
306.031	3.5	controlItem	n/a	n/a	10124	1	1	24	182	2	n/a	controlTrue
310.03	3.5	controlItem	n/a	n/a	10125	1	1	25	183	2	n/a	controlTrue
314.065	3.5	criticalItem	n/a	n/a	10126	1	1	26	184	2	n/a	criticalFalse
318.032	3.5	genericItem	n/a	n/a	10127	1	1	27	185	2	n/a	n/a
322.087	3.5	criticalItem	n/a	n/a	10128	1	1	28	186	2	n/a	criticalFoil
326.028	3.5	genericItem	n/a	n/a	10129	1	1	29	187	2	n/a	n/a
330.03	3.5	genericItem	n/a	n/a	10130	1	1	30	188	2	n/a	n/a
334.089	3.5	criticalItem	n/a	n/a	10131	1	1	31	189	2	n/a	criticalFalse
338.029	3.5	controlItem	n/a	n/a	10132	1	1	32	190	2	n/a	controlFoil2
342.032	3.5	genericItem	n/a	n/a	10133	1	1	33	191	2	n/a	n/a
346.031	3.5	genericItem	n/a	n/a	10134	1	1	34	192	2	n/a	n/a
350.033	3.5	genericItem	n/a	n/a	10135	1	1	35	193	2	n/a	n/a
354.087	3.5	criticalItem	n/a	n/a	10136	1	1	36	194	2	n/a	criticalTrue
358.031	3.5	genericItem	n/a	n/a	10137	1	1	37	195	2	n/a	n/a
362.031	3.5	genericItem	n/a	n/a	10138	1	1	38	196	2	n/a	n/a
366.031	3.5	genericItem	n/a	n/a	10139	1	1	39	197	2	n/a	n/a
370.03	3.5	controlItem	n/a	n/a	10140	1	1	40	198	2	n/a	controlTrue
374.068	3.5	criticalItem	n/a	n/a	10141	1	1	41	199	2	n/a	criticalFalse
378.029	3.5	genericItem	n/a	n/a	10142	1	1	42	200	2	n/a	n/a
382.029	3.5	genericItem	n/a	n/a	10143	1	1	43	201	2	n/a	n/a
386.031	3.5	genericItem	n/a	n/a	10144	1	1	44	202	2	n/a	n/a
390.031	3.5	genericItem	n/a	n/a	10145	1	1	45	203	2	n/a	n/a
394.029	3.5	controlItem	n/a	n/a	10146	1	1	46	204	2	n/a	controlTrue
398.03	3.5	genericItem	n/a	n/a	10147	1	1	47	205	2	n/a	n/a
402.03	3.5	genericItem	n/a	n/a	10148	1	1	48	206	2	n/a	n/a
406.029	3.5	controlItem	n/a	n/a	10149	1	1	49	207	2	n/a	controlFoil2
410.077	3.5	criticalItem	n/a	n/a	10150	1	1	50	208	2	n/a	criticalTrue
414.024	n/a	n/a	n/a	n/a	90100	9	1	0	209	2	n/a	n/a
418.023	n/a	n/a	n/a	n/a	90000	9	0	0	210	2	n/a	n/a
