onset	duration	trial_type	response	response_time	stim_id	stim_version	stim_events	stim_slides	trial_id	run_id	stim_redcross	subsequent_response_type
2.0821	n/a	n/a	n/a	n/a	80500	8	5	0	316	4	n/a	n/a
6.0979	3.5	genericItem	n/a	n/a	10501	1	5	1	317	4	n/a	n/a
10.0559	3.5	genericItem	n/a	n/a	10502	1	5	2	318	4	n/a	n/a
14.0236	3.5	criticalItem	n/a	n/a	10503	1	5	3	319	4	n/a	criticalFoil
18.0224	3.5	genericItem	n/a	n/a	10504	1	5	4	320	4	n/a	n/a
22.0235	3.5	criticalItem	n/a	n/a	10505	1	5	5	321	4	n/a	criticalFalse
26.026	3.5	genericItem	n/a	n/a	10506	1	5	6	322	4	n/a	n/a
30.0776	3.5	genericItem	n/a	n/a	10507	1	5	7	323	4	n/a	n/a
34.0645	3.5	genericItem	1	0.163	10508	1	5	8	324	4	1	n/a
38.0806	3.5	genericItem	n/a	n/a	10509	1	5	9	325	4	n/a	n/a
42.0242	3.5	genericItem	n/a	n/a	10510	1	5	10	326	4	n/a	n/a
46.0243	3.5	genericItem	n/a	n/a	10511	1	5	11	327	4	n/a	n/a
50.0702	3.5	genericItem	n/a	n/a	10512	1	5	12	328	4	n/a	n/a
54.0798	3.5	genericItem	n/a	n/a	10513	1	5	13	329	4	n/a	n/a
58.0577	3.5	controlItem	n/a	n/a	10514	1	5	14	330	4	n/a	controlTrue
62.0611	3.5	controlItem	n/a	n/a	10515	1	5	15	331	4	n/a	controlTrue
66.0239	3.5	criticalItem	n/a	n/a	10516	1	5	16	332	4	n/a	criticalTrue
70.0233	3.5	controlItem	n/a	n/a	10517	1	5	17	333	4	n/a	controlFoil1
74.0713	3.5	controlItem	n/a	n/a	10518	1	5	18	334	4	n/a	controlTrue
78.0239	3.5	criticalItem	n/a	n/a	10519	1	5	19	335	4	n/a	criticalTrue
82.0232	3.5	genericItem	n/a	n/a	10520	1	5	20	336	4	n/a	n/a
86.0811	3.5	criticalItem	n/a	n/a	10521	1	5	21	337	4	n/a	criticalFalse
90.0241	3.5	controlItem	n/a	n/a	10522	1	5	22	338	4	n/a	controlFoil1
94.024	3.5	criticalItem	n/a	n/a	10523	1	5	23	339	4	n/a	criticalTrue
98.024	3.5	controlItem	n/a	n/a	10524	1	5	24	340	4	n/a	controlTrue
102.024	3.5	controlItem	n/a	n/a	10525	1	5	25	341	4	n/a	controlTrue
106.023	3.5	criticalItem	n/a	n/a	10526	1	5	26	342	4	n/a	criticalFalse
110.024	3.5	controlItem	n/a	n/a	10527	1	5	27	343	4	n/a	controlTrue
114.075	3.5	genericItem	n/a	n/a	10528	1	5	28	344	4	n/a	n/a
118.024	3.5	genericItem	n/a	n/a	10529	1	5	29	345	4	n/a	n/a
122.082	3.5	genericItem	n/a	n/a	10530	1	5	30	346	4	n/a	n/a
126.024	3.5	criticalItem	n/a	n/a	10531	1	5	31	347	4	n/a	criticalTrue
130.023	3.5	controlItem	n/a	n/a	10532	1	5	32	348	4	n/a	controlTrue
134.087	3.5	genericItem	n/a	n/a	10533	1	5	33	349	4	n/a	n/a
138.077	3.5	genericItem	1	0.237	10534	1	5	34	350	4	1	n/a
142.06	3.5	genericItem	n/a	n/a	10535	1	5	35	351	4	n/a	n/a
146.057	3.5	genericItem	n/a	n/a	10536	1	5	36	352	4	n/a	n/a
150.024	3.5	genericItem	1	0.293	10537	1	5	37	353	4	1	n/a
154.025	3.5	genericItem	n/a	n/a	10538	1	5	38	354	4	n/a	n/a
158.068	3.5	criticalItem	n/a	n/a	10539	1	5	39	355	4	n/a	criticalFoil
162.024	3.5	genericItem	n/a	n/a	10540	1	5	40	356	4	n/a	n/a
166.086	3.5	criticalItem	n/a	n/a	10541	1	5	41	357	4	n/a	criticalFoil
170.024	3.5	controlItem	n/a	n/a	10542	1	5	42	358	4	n/a	controlTrue
174.077	3.5	genericItem	n/a	n/a	10543	1	5	43	359	4	n/a	n/a
178.023	3.5	genericItem	n/a	n/a	10544	1	5	44	360	4	n/a	n/a
182.089	3.5	genericItem	n/a	n/a	10545	1	5	45	361	4	n/a	n/a
186.08	3.5	controlItem	n/a	n/a	10546	1	5	46	362	4	n/a	controlFoil1
190.062	3.5	criticalItem	n/a	n/a	10547	1	5	47	363	4	n/a	criticalFoil
194.024	3.5	genericItem	n/a	n/a	10548	1	5	48	364	4	n/a	n/a
198.078	3.5	controlItem	n/a	n/a	10549	1	5	49	365	4	n/a	controlFoil1
202.07	3.5	criticalItem	n/a	n/a	10550	1	5	50	366	4	n/a	criticalFalse
206.068	n/a	n/a	n/a	n/a	90500	9	5	0	367	4	n/a	n/a
210.024	n/a	n/a	n/a	n/a	80300	8	3	0	368	4	n/a	n/a
214.101	3.5	genericItem	n/a	n/a	10301	1	3	1	369	4	n/a	n/a
218.023	3.5	genericItem	1	0.224	10302	1	3	2	370	4	1	n/a
222.024	3.5	controlItem	n/a	n/a	10303	1	3	3	371	4	n/a	controlTrue
226.024	3.5	genericItem	n/a	n/a	10304	1	3	4	372	4	n/a	n/a
230.024	3.5	criticalItem	n/a	n/a	10305	1	3	5	373	4	n/a	criticalFalse
234.025	3.5	genericItem	n/a	n/a	10306	1	3	6	374	4	n/a	n/a
238.024	3.5	genericItem	n/a	n/a	10307	1	3	7	375	4	n/a	n/a
242.08	3.5	genericItem	1	0.093	10308	1	3	8	376	4	1	n/a
246.078	3.5	controlItem	n/a	n/a	10309	1	3	9	377	4	n/a	controlFoil1
250.024	3.5	genericItem	n/a	n/a	10310	1	3	10	378	4	n/a	n/a
254.024	3.5	genericItem	n/a	n/a	10311	1	3	11	379	4	n/a	n/a
258.024	3.5	genericItem	n/a	n/a	10312	1	3	12	380	4	n/a	n/a
262.075	3.5	controlItem	n/a	n/a	10313	1	3	13	381	4	n/a	controlTrue
266.025	3.5	genericItem	n/a	n/a	10314	1	3	14	382	4	n/a	n/a
270.024	3.5	genericItem	n/a	n/a	10315	1	3	15	383	4	n/a	n/a
274.059	3.5	criticalItem	n/a	n/a	10316	1	3	16	384	4	n/a	criticalTrue
278.087	3.5	controlItem	n/a	n/a	10317	1	3	17	385	4	n/a	controlTrue
282.023	3.5	genericItem	n/a	n/a	10318	1	3	18	386	4	n/a	n/a
286.024	3.5	criticalItem	n/a	n/a	10319	1	3	19	387	4	n/a	criticalFoil
290.024	3.5	controlItem	n/a	n/a	10320	1	3	20	388	4	n/a	controlTrue
294.038	3.5	genericItem	n/a	n/a	10321	1	3	21	389	4	n/a	n/a
298.024	3.5	criticalItem	n/a	n/a	10322	1	3	22	390	4	n/a	criticalFalse
302.023	3.5	genericItem	n/a	n/a	10323	1	3	23	391	4	n/a	n/a
306.024	3.5	criticalItem	n/a	n/a	10324	1	3	24	392	4	n/a	criticalFalse
310.024	3.5	controlItem	n/a	n/a	10325	1	3	25	393	4	n/a	controlTrue
314.023	3.5	genericItem	n/a	n/a	10326	1	3	26	394	4	n/a	n/a
318.024	3.5	criticalItem	n/a	n/a	10327	1	3	27	395	4	n/a	criticalFalse
322.035	3.5	genericItem	n/a	n/a	10328	1	3	28	396	4	n/a	n/a
326.06	3.5	controlItem	n/a	n/a	10329	1	3	29	397	4	n/a	controlTrue
330.078	3.5	criticalItem	n/a	n/a	10330	1	3	30	398	4	n/a	criticalFalse
334.024	3.5	controlItem	n/a	n/a	10331	1	3	31	399	4	n/a	controlTrue
338.023	3.5	criticalItem	n/a	n/a	10332	1	3	32	400	4	n/a	criticalFalse
342.088	3.5	genericItem	n/a	n/a	10333	1	3	33	401	4	n/a	n/a
346.023	3.5	genericItem	n/a	n/a	10334	1	3	34	402	4	n/a	n/a
350.061	3.5	genericItem	n/a	n/a	10335	1	3	35	403	4	n/a	n/a
354.023	3.5	criticalItem	n/a	n/a	10336	1	3	36	404	4	n/a	criticalFalse
358.058	3.5	genericItem	n/a	n/a	10337	1	3	37	405	4	n/a	n/a
362.023	3.5	genericItem	n/a	n/a	10338	1	3	38	406	4	n/a	n/a
366.023	3.5	genericItem	n/a	n/a	10339	1	3	39	407	4	n/a	n/a
370.024	3.5	genericItem	n/a	n/a	10340	1	3	40	408	4	n/a	n/a
374.025	3.5	criticalItem	n/a	n/a	10341	1	3	41	409	4	n/a	criticalTrue
378.023	3.5	controlItem	n/a	n/a	10342	1	3	42	410	4	n/a	controlFoil1
382.042	3.5	genericItem	n/a	n/a	10343	1	3	43	411	4	n/a	n/a
386.024	3.5	criticalItem	n/a	n/a	10344	1	3	44	412	4	n/a	criticalFalse
390.08	3.5	controlItem	n/a	n/a	10345	1	3	45	413	4	n/a	controlTrue
394.073	3.5	genericItem	1	0.226	10346	1	3	46	414	4	1	n/a
398.024	3.5	criticalItem	n/a	n/a	10347	1	3	47	415	4	n/a	criticalFoil
402.079	3.5	controlItem	n/a	n/a	10348	1	3	48	416	4	n/a	controlFoil1
406.025	3.5	genericItem	n/a	n/a	10349	1	3	49	417	4	n/a	n/a
410.023	3.5	controlItem	n/a	n/a	10350	1	3	50	418	4	n/a	controlTrue
414.079	n/a	n/a	n/a	n/a	90300	9	3	0	419	4	n/a	n/a
418.022	n/a	n/a	n/a	n/a	90000	5	0	0	420	4	n/a	n/a
