onset	duration	trial_type	response	response_time	stim_id	stim_events	stim_slides	trial_id	run_id	stim_type	response_type
2.00868	n/a	n/a	n/a	n/a	80100	1	0	149	2	8	n/a
12.0073	3.5	controlItem	n/a	n/a	10116	1	16	150	2	1	n/a
15.4897	3.0	controlItem	n/a	n/a	50116	1	16	151	2	0	n/a
18.4905	3.0	controlItem	True	1.386	50116	1	16	152	2	5	controlTrue
22.0056	3.5	criticalItem	n/a	n/a	10119	1	19	153	2	1	n/a
25.489	3.0	criticalItem	n/a	n/a	50119	1	19	154	2	0	n/a
28.4894	3.0	criticalItem	False	1.313	50119	1	19	155	2	5	criticalFalse
32.0057	3.5	criticalItem	n/a	n/a	10141	1	41	156	2	1	n/a
35.4898	3.0	criticalItem	n/a	n/a	30141	1	41	157	2	0	n/a
38.4885	3.0	criticalItem	True	0.808	30141	1	41	158	2	3	criticalTrue
42.0035	3.5	criticalItem	n/a	n/a	10131	1	31	159	2	1	n/a
45.4868	3.0	criticalItem	n/a	n/a	50131	1	31	160	2	0	n/a
48.4875	3.0	criticalItem	False	2.625	50131	1	31	161	2	5	criticalFalse
52.0028	3.5	controlItem	n/a	n/a	10123	1	23	162	2	1	n/a
55.4859	3.0	controlItem	n/a	n/a	20123	1	23	163	2	0	n/a
58.4866	3.0	controlItem	True	0.472	20123	1	23	164	2	2	controlTrue
62.002	3.5	criticalItem	n/a	n/a	10110	1	10	165	2	1	n/a
65.4851	3.0	criticalItem	n/a	n/a	50110	1	10	166	2	0	n/a
68.486	3.0	criticalItem	False	0.87	50110	1	10	167	2	5	criticalFalse
72.0013	3.5	controlItem	n/a	n/a	10121	1	21	168	2	1	n/a
75.485	3.0	controlItem	n/a	n/a	20121	1	21	169	2	0	n/a
78.4846	3.0	controlItem	Foil2	1.225	20121	1	21	170	2	2	controlFoil2
82.001	3.5	criticalItem	n/a	n/a	10117	1	17	171	2	1	n/a
85.484	3.0	criticalItem	n/a	n/a	70117	1	17	172	2	0	n/a
88.4836	3.0	criticalItem	True	2.484	70117	1	17	173	2	7	criticalTrue
92.0001	3.5	criticalItem	n/a	n/a	10150	1	50	174	2	1	n/a
95.483	3.0	criticalItem	n/a	n/a	70150	1	50	175	2	0	n/a
98.4826	3.0	criticalItem	True	2.032	70150	1	50	176	2	7	criticalTrue
102.014	3.5	controlItem	n/a	n/a	10146	1	46	177	2	1	n/a
105.499	3.0	controlItem	n/a	n/a	70146	1	46	178	2	0	n/a
108.498	3.0	controlItem	True	1.068	70146	1	46	179	2	7	controlTrue
112.015	3.5	controlItem	n/a	n/a	10132	1	32	180	2	1	n/a
115.498	3.0	controlItem	n/a	n/a	30132	1	32	181	2	0	n/a
118.497	3.0	controlItem	Foil1	0.755	30132	1	32	182	2	3	controlFoil1
122.014	3.5	criticalItem	n/a	n/a	10122	1	22	183	2	1	n/a
125.496	3.0	criticalItem	n/a	n/a	60122	1	22	184	2	0	n/a
128.495	3.0	criticalItem	False	2.197	60122	1	22	185	2	6	criticalFalse
132.013	3.5	controlItem	n/a	n/a	10107	1	7	186	2	1	n/a
135.495	3.0	controlItem	n/a	n/a	40107	1	7	187	2	0	n/a
138.495	3.0	controlItem	True	1.258	40107	1	7	188	2	4	controlTrue
142.01	3.5	criticalItem	n/a	n/a	10128	1	28	189	2	1	n/a
145.495	3.0	criticalItem	n/a	n/a	50128	1	28	190	2	0	n/a
148.494	3.0	criticalItem	True	1.684	50128	1	28	191	2	5	criticalTrue
152.009	3.5	controlItem	n/a	n/a	10104	1	4	192	2	1	n/a
155.492	3.0	controlItem	n/a	n/a	60104	1	4	193	2	0	n/a
158.492	3.0	controlItem	Foil1	0.839	60104	1	4	194	2	6	controlFoil1
162.009	3.5	controlItem	n/a	n/a	10149	1	49	195	2	1	n/a
165.492	3.0	controlItem	n/a	n/a	30149	1	49	196	2	0	n/a
168.492	3.0	controlItem	Foil1	1.216	30149	1	49	197	2	3	controlFoil1
172.008	3.5	controlItem	n/a	n/a	10118	1	18	198	2	1	n/a
175.492	3.0	controlItem	n/a	n/a	60118	1	18	199	2	0	n/a
178.491	3.0	controlItem	True	2.915	60118	1	18	200	2	6	controlTrue
182.008	3.5	controlItem	n/a	n/a	10140	1	40	201	2	1	n/a
185.491	3.0	controlItem	ForbiddenKey	1.709	50140	1	40	202	2	0	n/a
188.49	3.0	controlItem	True	0.429	50140	1	40	203	2	5	controlTrue
192.005	3.5	criticalItem	n/a	n/a	10114	1	14	204	2	1	n/a
195.49	3.0	criticalItem	n/a	n/a	20114	1	14	205	2	0	n/a
198.488	3.0	criticalItem	False	1.468	20114	1	14	206	2	2	criticalFalse
202.004	3.5	controlItem	n/a	n/a	10124	1	24	207	2	1	n/a
205.488	3.0	controlItem	n/a	n/a	50124	1	24	208	2	0	n/a
208.489	3.0	controlItem	True	1.084	50124	1	24	209	2	5	controlTrue
212.005	3.5	controlItem	n/a	n/a	10125	1	25	210	2	1	n/a
215.487	3.0	controlItem	n/a	n/a	20125	1	25	211	2	0	n/a
218.488	3.0	controlItem	True	0.702	20125	1	25	212	2	2	controlTrue
222.003	3.5	criticalItem	n/a	n/a	10126	1	26	213	2	1	n/a
225.486	3.0	criticalItem	n/a	n/a	30126	1	26	214	2	0	n/a
228.487	3.0	criticalItem	True	0.916	30126	1	26	215	2	3	criticalTrue
232.002	3.5	criticalItem	n/a	n/a	10136	1	36	216	2	1	n/a
235.486	3.0	criticalItem	n/a	n/a	40136	1	36	217	2	0	n/a
238.484	3.0	criticalItem	True	1.967	40136	1	36	218	2	4	criticalTrue
242.001	3.5	criticalItem	n/a	n/a	10112	1	12	219	2	1	n/a
245.484	3.0	criticalItem	n/a	n/a	40112	1	12	220	2	0	n/a
248.483	3.0	criticalItem	True	0.934	40112	1	12	221	2	4	criticalTrue
251.999	n/a	n/a	n/a	n/a	90100	1	0	222	2	9	n/a
256	n/a	n/a	n/a	n/a	80400	4	0	223	2	8	n/a
266	3.5	criticalItem	n/a	n/a	10411	4	11	224	2	1	n/a
269.482	3.0	criticalItem	n/a	n/a	20411	4	11	225	2	0	n/a
272.482	3.0	criticalItem	Foil	2.412	20411	4	11	226	2	2	criticalFoil
276.014	3.5	criticalItem	n/a	n/a	10440	4	40	227	2	1	n/a
279.496	3.0	criticalItem	n/a	n/a	30440	4	40	228	2	0	n/a
282.498	3.0	criticalItem	True	0.899	30440	4	40	229	2	3	criticalTrue
286.013	3.5	controlItem	n/a	n/a	10450	4	50	230	2	1	n/a
289.497	3.0	controlItem	n/a	n/a	30450	4	50	231	2	0	n/a
292.497	3.0	controlItem	True	1.676	30450	4	50	232	2	3	controlTrue
296.013	3.5	criticalItem	n/a	n/a	10407	4	7	233	2	1	n/a
299.496	3.0	criticalItem	n/a	n/a	20407	4	7	234	2	0	n/a
302.495	3.0	criticalItem	False	0.7	20407	4	7	235	2	2	criticalFalse
306.012	3.5	controlItem	n/a	n/a	10412	4	12	236	2	1	n/a
309.495	3.0	controlItem	n/a	n/a	40412	4	12	237	2	0	n/a
312.493	3.0	controlItem	True	1.954	40412	4	12	238	2	4	controlTrue
316.01	3.5	criticalItem	n/a	n/a	10419	4	19	239	2	1	n/a
319.494	3.0	criticalItem	n/a	n/a	40419	4	19	240	2	0	n/a
322.494	3.0	criticalItem	True	0.763	40419	4	19	241	2	4	criticalTrue
326.009	3.5	controlItem	n/a	n/a	10416	4	16	242	2	1	n/a
329.493	3.0	controlItem	n/a	n/a	20416	4	16	243	2	0	n/a
332.492	3.0	controlItem	True	1.142	20416	4	16	244	2	2	controlTrue
336.008	3.5	controlItem	n/a	n/a	10442	4	42	245	2	1	n/a
339.492	3.0	controlItem	n/a	n/a	40442	4	42	246	2	0	n/a
342.492	3.0	controlItem	n/a	n/a	40442	4	42	247	2	4	n/a
346.008	3.5	controlItem	n/a	n/a	10448	4	48	248	2	1	n/a
349.491	3.0	controlItem	n/a	n/a	60448	4	48	249	2	0	n/a
352.49	3.0	controlItem	Foil2	0.396	60448	4	48	250	2	6	controlFoil2
356.007	3.5	criticalItem	n/a	n/a	10417	4	17	251	2	1	n/a
359.49	3.0	criticalItem	n/a	n/a	20417	4	17	252	2	0	n/a
362.49	3.0	criticalItem	True	0.461	20417	4	17	253	2	2	criticalTrue
366.005	3.5	controlItem	n/a	n/a	10446	4	46	254	2	1	n/a
369.488	3.0	controlItem	n/a	n/a	50446	4	46	255	2	0	n/a
372.488	3.0	controlItem	True	0.385	50446	4	46	256	2	5	controlTrue
376.005	3.5	criticalItem	n/a	n/a	10436	4	36	257	2	1	n/a
379.489	3.0	criticalItem	n/a	n/a	40436	4	36	258	2	0	n/a
382.487	3.0	criticalItem	True	0.869	40436	4	36	259	2	4	criticalTrue
386.003	3.5	controlItem	n/a	n/a	10409	4	9	260	2	1	n/a
389.487	3.0	controlItem	n/a	n/a	20409	4	9	261	2	0	n/a
392.487	3.0	controlItem	Foil2	0.733	20409	4	9	262	2	2	controlFoil2
396.002	3.5	criticalItem	n/a	n/a	10449	4	49	263	2	1	n/a
399.486	3.0	criticalItem	n/a	n/a	60449	4	49	264	2	0	n/a
402.485	3.0	criticalItem	False	0.439	60449	4	49	265	2	6	criticalFalse
406.002	3.5	criticalItem	n/a	n/a	10424	4	24	266	2	1	n/a
409.485	3.0	criticalItem	n/a	n/a	40424	4	24	267	2	0	n/a
412.484	3.0	criticalItem	True	0.43	40424	4	24	268	2	4	criticalTrue
416	3.5	controlItem	n/a	n/a	10425	4	25	269	2	1	n/a
419.484	3.0	controlItem	n/a	n/a	20425	4	25	270	2	0	n/a
422.484	3.0	controlItem	Foil2	1.227	20425	4	25	271	2	2	controlFoil2
425.999	3.5	criticalItem	n/a	n/a	10404	4	4	272	2	1	n/a
429.482	3.0	criticalItem	n/a	n/a	40404	4	4	273	2	0	n/a
432.482	3.0	criticalItem	False	0.405	40404	4	4	274	2	4	criticalFalse
435.999	3.5	controlItem	n/a	n/a	10430	4	30	275	2	1	n/a
439.482	3.0	controlItem	n/a	n/a	40430	4	30	276	2	0	n/a
442.482	3.0	controlItem	Foil1	0.74	40430	4	30	277	2	4	controlFoil1
446.014	3.5	controlItem	n/a	n/a	10444	4	44	278	2	1	n/a
449.497	3.0	controlItem	n/a	n/a	70444	4	44	279	2	0	n/a
452.497	3.0	controlItem	Foil2	0.98	70444	4	44	280	2	7	controlFoil2
456.014	3.5	controlItem	n/a	n/a	10422	4	22	281	2	1	n/a
459.497	3.0	controlItem	n/a	n/a	50422	4	22	282	2	0	n/a
462.496	3.0	controlItem	True	0.496	50422	4	22	283	2	5	controlTrue
466.013	3.5	controlItem	n/a	n/a	10443	4	43	284	2	1	n/a
469.495	3.0	controlItem	n/a	n/a	20443	4	43	285	2	0	n/a
472.495	3.0	controlItem	Foil1	0.931	20443	4	43	286	2	2	controlFoil1
476.011	3.5	criticalItem	n/a	n/a	10415	4	15	287	2	1	n/a
479.495	3.0	criticalItem	n/a	n/a	40415	4	15	288	2	0	n/a
482.495	3.0	criticalItem	True	0.63	40415	4	15	289	2	4	criticalTrue
486.011	3.5	criticalItem	n/a	n/a	10429	4	29	290	2	1	n/a
489.493	3.0	criticalItem	n/a	n/a	20429	4	29	291	2	0	n/a
492.492	3.0	criticalItem	False	0.694	20429	4	29	292	2	2	criticalFalse
496.009	3.5	criticalItem	n/a	n/a	10438	4	38	293	2	1	n/a
499.493	3.0	criticalItem	n/a	n/a	60438	4	38	294	2	0	n/a
502.492	3.0	criticalItem	False	1.679	60438	4	38	295	2	6	criticalFalse
506.009	n/a	n/a	n/a	n/a	90400	4	0	296	2	9	n/a
