onset	duration	trial_type	response	response_time	stim_id	stim_events	stim_slides	trial_id	run_id	stim_type	response_type
2.00869	n/a	n/a	n/a	n/a	80200	2	0	297	3	8	n/a
12.0067	3.5	criticalItem	n/a	n/a	10214	2	14	298	3	1	n/a
15.4906	3.0	criticalItem	n/a	n/a	60214	2	14	299	3	0	n/a
18.4886	3.0	criticalItem	True	0.629	60214	2	14	300	3	6	criticalTrue
22.006	3.5	controlItem	n/a	n/a	10222	2	22	301	3	1	n/a
25.4888	3.0	controlItem	n/a	n/a	50222	2	22	302	3	0	n/a
28.4889	3.0	controlItem	Foil1	0.939	50222	2	22	303	3	5	controlFoil1
32.0052	3.5	controlItem	n/a	n/a	10242	2	42	304	3	1	n/a
35.4873	3.0	controlItem	n/a	n/a	70242	2	42	305	3	0	n/a
38.4876	3.0	controlItem	Foil2	0.636	70242	2	42	306	3	7	controlFoil2
42.0025	3.5	controlItem	n/a	n/a	10205	2	5	307	3	1	n/a
45.4867	3.0	controlItem	n/a	n/a	20205	2	5	308	3	0	n/a
48.4851	3.0	controlItem	True	0.471	20205	2	5	309	3	2	controlTrue
52.0025	3.5	criticalItem	n/a	n/a	10241	2	41	310	3	1	n/a
55.4862	3.0	criticalItem	n/a	n/a	60241	2	41	311	3	0	n/a
58.485	3.0	criticalItem	True	2.549	60241	2	41	312	3	6	criticalTrue
62.0013	3.5	controlItem	n/a	n/a	10230	2	30	313	3	1	n/a
65.485	3.0	controlItem	n/a	n/a	30230	2	30	314	3	0	n/a
68.4851	3.0	controlItem	True	0.469	30230	2	30	315	3	3	controlTrue
72.0003	3.5	criticalItem	n/a	n/a	10245	2	45	316	3	1	n/a
75.4837	3.0	criticalItem	n/a	n/a	60245	2	45	317	3	0	n/a
78.4833	3.0	criticalItem	True	0.671	60245	2	45	318	3	6	criticalTrue
81.9993	3.5	controlItem	n/a	n/a	10217	2	17	319	3	1	n/a
85.4822	3.0	controlItem	n/a	n/a	60217	2	17	320	3	0	n/a
88.4823	3.0	controlItem	Foil1	1.135	60217	2	17	321	3	6	controlFoil1
91.9991	3.5	controlItem	n/a	n/a	10237	2	37	322	3	1	n/a
95.4821	3.0	controlItem	n/a	n/a	30237	2	37	323	3	0	n/a
98.4814	3.0	controlItem	Foil2	0.438	30237	2	37	324	3	3	controlFoil2
102.015	3.5	criticalItem	n/a	n/a	10219	2	19	325	3	1	n/a
105.498	3.0	criticalItem	n/a	n/a	70219	2	19	326	3	0	n/a
108.496	3.0	criticalItem	False	0.467	70219	2	19	327	3	7	criticalFalse
112.013	3.5	controlItem	n/a	n/a	10248	2	48	328	3	1	n/a
115.497	3.0	controlItem	n/a	n/a	20248	2	48	329	3	0	n/a
118.496	3.0	controlItem	Foil1	0.428	20248	2	48	330	3	2	controlFoil1
122.011	3.5	controlItem	n/a	n/a	10235	2	35	331	3	1	n/a
125.497	3.0	controlItem	n/a	n/a	50235	2	35	332	3	0	n/a
128.496	3.0	controlItem	True	0.527	50235	2	35	333	3	5	controlTrue
132.011	3.5	criticalItem	n/a	n/a	10231	2	31	334	3	1	n/a
135.494	3.0	criticalItem	n/a	n/a	60231	2	31	335	3	0	n/a
138.494	3.0	criticalItem	True	0.307	60231	2	31	336	3	6	criticalTrue
142.01	3.5	criticalItem	n/a	n/a	10234	2	34	337	3	1	n/a
145.494	3.0	criticalItem	n/a	n/a	30234	2	34	338	3	0	n/a
148.494	3.0	criticalItem	False	0.603	30234	2	34	339	3	3	criticalFalse
152.008	3.5	criticalItem	n/a	n/a	10238	2	38	340	3	1	n/a
155.492	3.0	criticalItem	n/a	n/a	20238	2	38	341	3	0	n/a
158.491	3.0	criticalItem	True	0.871	20238	2	38	342	3	2	criticalTrue
162.007	3.5	controlItem	n/a	n/a	10246	2	46	343	3	1	n/a
165.492	3.0	controlItem	n/a	n/a	70246	2	46	344	3	0	n/a
168.491	3.0	controlItem	True	0.597	70246	2	46	345	3	7	controlTrue
172.008	3.5	controlItem	n/a	n/a	10207	2	7	346	3	1	n/a
175.491	3.0	controlItem	n/a	n/a	20207	2	7	347	3	0	n/a
178.491	3.0	controlItem	Foil1	1.235	20207	2	7	348	3	2	controlFoil1
182.007	3.5	controlItem	n/a	n/a	10204	2	4	349	3	1	n/a
185.489	3.0	controlItem	n/a	n/a	50204	2	4	350	3	0	n/a
188.488	3.0	controlItem	True	0.771	50204	2	4	351	3	5	controlTrue
192.004	3.5	controlItem	n/a	n/a	10232	2	32	352	3	1	n/a
195.487	3.0	controlItem	n/a	n/a	70232	2	32	353	3	0	n/a
198.488	3.0	controlItem	True	0.611	70232	2	32	354	3	7	controlTrue
202.004	3.5	criticalItem	n/a	n/a	10225	2	25	355	3	1	n/a
205.487	3.0	criticalItem	n/a	n/a	40225	2	25	356	3	0	n/a
208.487	3.0	criticalItem	False	0.839	40225	2	25	357	3	4	criticalFalse
212.004	3.5	criticalItem	n/a	n/a	10223	2	23	358	3	1	n/a
215.486	3.0	criticalItem	n/a	n/a	50223	2	23	359	3	0	n/a
218.486	3.0	criticalItem	True	0.644	50223	2	23	360	3	5	criticalTrue
222.002	3.5	criticalItem	n/a	n/a	10228	2	28	361	3	1	n/a
225.484	3.0	criticalItem	n/a	n/a	20228	2	28	362	3	0	n/a
228.484	3.0	criticalItem	Foil	1.125	20228	2	28	363	3	2	criticalFoil
232.001	3.5	criticalItem	n/a	n/a	10249	2	49	364	3	1	n/a
235.485	3.0	criticalItem	n/a	n/a	50249	2	49	365	3	0	n/a
238.484	3.0	criticalItem	Foil	1.462	50249	2	49	366	3	5	criticalFoil
242	3.5	criticalItem	n/a	n/a	10236	2	36	367	3	1	n/a
245.484	3.0	criticalItem	n/a	n/a	60236	2	36	368	3	0	n/a
248.484	3.0	criticalItem	True	0.606	60236	2	36	369	3	6	criticalTrue
252.017	n/a	n/a	n/a	n/a	90200	2	0	370	3	9	n/a
256	n/a	n/a	n/a	n/a	80500	5	0	371	3	8	n/a
266.014	3.5	controlItem	n/a	n/a	10522	5	22	372	3	1	n/a
269.498	3.0	controlItem	n/a	n/a	60522	5	22	373	3	0	n/a
272.497	3.0	controlItem	Foil1	1.409	60522	5	22	374	3	6	controlFoil1
276.013	3.5	criticalItem	n/a	n/a	10516	5	16	375	3	1	n/a
279.496	3.0	criticalItem	n/a	n/a	70516	5	16	376	3	0	n/a
282.496	3.0	criticalItem	False	0.368	70516	5	16	377	3	7	criticalFalse
286.013	3.5	controlItem	n/a	n/a	10515	5	15	378	3	1	n/a
289.495	3.0	controlItem	n/a	n/a	60515	5	15	379	3	0	n/a
292.495	3.0	controlItem	Foil2	0.833	60515	5	15	380	3	6	controlFoil2
296.011	3.5	controlItem	n/a	n/a	10524	5	24	381	3	1	n/a
299.494	3.0	controlItem	n/a	n/a	70524	5	24	382	3	0	n/a
302.494	3.0	controlItem	True	0.678	70524	5	24	383	3	7	controlTrue
306.01	3.5	controlItem	n/a	n/a	10549	5	49	384	3	1	n/a
309.494	3.0	controlItem	n/a	n/a	50549	5	49	385	3	0	n/a
312.494	3.0	controlItem	Foil2	1.152	50549	5	49	386	3	5	controlFoil2
316.01	3.5	criticalItem	n/a	n/a	10505	5	5	387	3	1	n/a
319.492	3.0	criticalItem	n/a	n/a	30505	5	5	388	3	0	n/a
322.493	3.0	criticalItem	False	0.479	30505	5	5	389	3	3	criticalFalse
326.008	3.5	controlItem	n/a	n/a	10546	5	46	390	3	1	n/a
329.491	3.0	controlItem	n/a	n/a	50546	5	46	391	3	0	n/a
332.491	3.0	controlItem	True	0.497	50546	5	46	392	3	5	controlTrue
336.007	3.5	controlItem	n/a	n/a	10517	5	17	393	3	1	n/a
339.491	3.0	controlItem	n/a	n/a	40517	5	17	394	3	0	n/a
342.49	3.0	controlItem	n/a	n/a	40517	5	17	395	3	4	n/a
346.007	3.5	criticalItem	n/a	n/a	10547	5	47	396	3	1	n/a
349.49	3.0	criticalItem	n/a	n/a	50547	5	47	397	3	0	n/a
352.488	3.0	criticalItem	False	0.805	50547	5	47	398	3	5	criticalFalse
356.005	3.5	controlItem	n/a	n/a	10542	5	42	399	3	1	n/a
359.487	3.0	controlItem	n/a	n/a	50542	5	42	400	3	0	n/a
362.488	3.0	controlItem	True	0.449	50542	5	42	401	3	5	controlTrue
366.003	3.5	criticalItem	n/a	n/a	10523	5	23	402	3	1	n/a
369.488	3.0	criticalItem	n/a	n/a	20523	5	23	403	3	0	n/a
372.486	3.0	criticalItem	False	0.499	20523	5	23	404	3	2	criticalFalse
376.004	3.5	criticalItem	n/a	n/a	10503	5	3	405	3	1	n/a
379.487	3.0	criticalItem	n/a	n/a	50503	5	3	406	3	0	n/a
382.486	3.0	criticalItem	True	0.47	50503	5	3	407	3	5	criticalTrue
386.002	3.5	controlItem	n/a	n/a	10514	5	14	408	3	1	n/a
389.487	3.0	controlItem	n/a	n/a	20514	5	14	409	3	0	n/a
392.485	3.0	controlItem	True	0.553	20514	5	14	410	3	2	controlTrue
396.001	3.5	criticalItem	n/a	n/a	10550	5	50	411	3	1	n/a
399.485	3.0	criticalItem	n/a	n/a	60550	5	50	412	3	0	n/a
402.483	3.0	criticalItem	False	0.701	60550	5	50	413	3	6	criticalFalse
406	3.5	criticalItem	n/a	n/a	10541	5	41	414	3	1	n/a
409.483	3.0	criticalItem	n/a	n/a	50541	5	41	415	3	0	n/a
412.483	3.0	criticalItem	True	1.293	50541	5	41	416	3	5	criticalTrue
416.001	3.5	criticalItem	n/a	n/a	10521	5	21	417	3	1	n/a
419.483	3.0	criticalItem	n/a	n/a	40521	5	21	418	3	0	n/a
422.482	3.0	criticalItem	False	0.6	40521	5	21	419	3	4	criticalFalse
426.014	3.5	controlItem	n/a	n/a	10532	5	32	420	3	1	n/a
429.499	3.0	controlItem	n/a	n/a	60532	5	32	421	3	0	n/a
432.497	3.0	controlItem	True	0.452	60532	5	32	422	3	6	controlTrue
436.014	3.5	criticalItem	n/a	n/a	10531	5	31	423	3	1	n/a
439.498	3.0	criticalItem	n/a	n/a	30531	5	31	424	3	0	n/a
442.497	3.0	criticalItem	False	0.535	30531	5	31	425	3	3	criticalFalse
446.013	3.5	criticalItem	n/a	n/a	10519	5	19	426	3	1	n/a
449.497	3.0	criticalItem	n/a	n/a	50519	5	19	427	3	0	n/a
452.496	3.0	criticalItem	True	0.362	50519	5	19	428	3	5	criticalTrue
456.013	3.5	controlItem	n/a	n/a	10518	5	18	429	3	1	n/a
459.496	3.0	controlItem	n/a	n/a	30518	5	18	430	3	0	n/a
462.495	3.0	controlItem	True	0.702	30518	5	18	431	3	3	controlTrue
466.011	3.5	criticalItem	n/a	n/a	10526	5	26	432	3	1	n/a
469.494	3.0	criticalItem	n/a	n/a	40526	5	26	433	3	0	n/a
472.494	3.0	criticalItem	True	0.733	40526	5	26	434	3	4	criticalTrue
476.009	3.5	criticalItem	n/a	n/a	10539	5	39	435	3	1	n/a
479.493	3.0	criticalItem	n/a	n/a	70539	5	39	436	3	0	n/a
482.493	3.0	criticalItem	True	1.103	70539	5	39	437	3	7	criticalTrue
486.009	3.5	controlItem	n/a	n/a	10525	5	25	438	3	1	n/a
489.493	3.0	controlItem	n/a	n/a	30525	5	25	439	3	0	n/a
492.492	3.0	controlItem	True	0.538	30525	5	25	440	3	3	controlTrue
496.008	3.5	controlItem	n/a	n/a	10527	5	27	441	3	1	n/a
499.491	3.0	controlItem	n/a	n/a	50527	5	27	442	3	0	n/a
502.49	3.0	controlItem	Foil1	0.468	50527	5	27	443	3	5	controlFoil1
506.007	n/a	n/a	n/a	n/a	90500	5	0	444	3	9	n/a
