onset	duration	trial_type	response	response_time	stim_id	stim_version	stim_events	stim_slides	trial_id	run_id	stim_redcross	subsequent_response_type
2.0361	n/a	n/a	n/a	n/a	80900	8	9	0	316	4	n/a	n/a
6.0294	3.5	genericItem	n/a	n/a	10901	1	9	1	317	4	n/a	n/a
10.0269	3.5	genericItem	n/a	n/a	10902	1	9	2	318	4	n/a	n/a
14.0276	3.5	controlItem	n/a	n/a	10903	1	9	3	319	4	n/a	controlTrue
18.0587	3.5	criticalItem	n/a	n/a	10904	1	9	4	320	4	n/a	criticalTrue
22.0267	3.5	controlItem	n/a	n/a	10905	1	9	5	321	4	n/a	controlFoil2
26.0276	3.5	genericItem	n/a	n/a	10906	1	9	6	322	4	n/a	n/a
30.0271	3.5	genericItem	n/a	n/a	10907	1	9	7	323	4	n/a	n/a
34.0536	3.5	criticalItem	n/a	n/a	10908	1	9	8	324	4	n/a	criticalTrue
38.026	3.5	controlItem	n/a	n/a	10909	1	9	9	325	4	n/a	controlTrue
42.0541	3.5	criticalItem	n/a	n/a	10910	1	9	10	326	4	n/a	criticalFoil
46.0278	3.5	controlItem	n/a	n/a	10911	1	9	11	327	4	n/a	controlTrue
50.0272	3.5	genericItem	1	0.718	10912	1	9	12	328	4	1	n/a
54.0633	3.5	criticalItem	n/a	n/a	10913	1	9	13	329	4	n/a	criticalFoil
58.0269	3.5	genericItem	n/a	n/a	10914	1	9	14	330	4	n/a	n/a
62.0273	3.5	controlItem	n/a	n/a	10915	1	9	15	331	4	n/a	controlTrue
66.0261	3.5	genericItem	n/a	n/a	10916	1	9	16	332	4	n/a	n/a
70.0272	3.5	controlItem	n/a	n/a	10917	1	9	17	333	4	n/a	controlFoil1
74.0283	3.5	genericItem	n/a	n/a	10918	1	9	18	334	4	n/a	n/a
78.0578	3.5	criticalItem	n/a	n/a	10919	1	9	19	335	4	n/a	criticalFalse
82.0264	3.5	genericItem	1	0.788	10920	1	9	20	336	4	1	n/a
86.0275	3.5	genericItem	n/a	n/a	10921	1	9	21	337	4	n/a	n/a
90.0533	3.5	criticalItem	n/a	n/a	10922	1	9	22	338	4	n/a	criticalTrue
94.0267	3.5	controlItem	n/a	n/a	10923	1	9	23	339	4	n/a	controlTrue
98.0732	3.5	criticalItem	n/a	n/a	10924	1	9	24	340	4	n/a	criticalFalse
102.027	3.5	genericItem	n/a	n/a	10925	1	9	25	341	4	n/a	n/a
106.075	3.5	criticalItem	n/a	n/a	10926	1	9	26	342	4	n/a	criticalFalse
110.027	3.5	genericItem	1	0.679	10927	1	9	27	343	4	1	n/a
114.054	3.5	criticalItem	n/a	n/a	10928	1	9	28	344	4	n/a	criticalFoil
118.025	3.5	genericItem	n/a	n/a	10929	1	9	29	345	4	n/a	n/a
122.029	3.5	genericItem	n/a	n/a	10930	1	9	30	346	4	n/a	n/a
126.025	3.5	controlItem	n/a	n/a	10931	1	9	31	347	4	n/a	controlFoil1
130.027	3.5	genericItem	n/a	n/a	10932	1	9	32	348	4	n/a	n/a
134.027	3.5	genericItem	n/a	n/a	10933	1	9	33	349	4	n/a	n/a
138.026	3.5	genericItem	n/a	n/a	10934	1	9	34	350	4	n/a	n/a
142.047	3.5	criticalItem	n/a	n/a	10935	1	9	35	351	4	n/a	criticalTrue
146.027	3.5	genericItem	n/a	n/a	10936	1	9	36	352	4	n/a	n/a
150.027	3.5	genericItem	n/a	n/a	10937	1	9	37	353	4	n/a	n/a
154.026	3.5	genericItem	n/a	n/a	10938	1	9	38	354	4	n/a	n/a
158.027	3.5	genericItem	n/a	n/a	10939	1	9	39	355	4	n/a	n/a
162.026	3.5	genericItem	n/a	n/a	10940	1	9	40	356	4	n/a	n/a
166.053	3.5	criticalItem	n/a	n/a	10941	1	9	41	357	4	n/a	criticalTrue
170.026	3.5	genericItem	n/a	n/a	10942	1	9	42	358	4	n/a	n/a
174.025	3.5	controlItem	n/a	n/a	10943	1	9	43	359	4	n/a	controlTrue
178.026	3.5	genericItem	1	0.712	10944	1	9	44	360	4	1	n/a
182.027	3.5	controlItem	n/a	n/a	10945	1	9	45	361	4	n/a	controlTrue
186.026	3.5	genericItem	n/a	n/a	10946	1	9	46	362	4	n/a	n/a
190.026	3.5	controlItem	n/a	n/a	10947	1	9	47	363	4	n/a	controlTrue
194.028	3.5	genericItem	n/a	n/a	10948	1	9	48	364	4	n/a	n/a
198.057	3.5	criticalItem	n/a	n/a	10949	1	9	49	365	4	n/a	criticalTrue
202.027	3.5	controlItem	n/a	n/a	10950	1	9	50	366	4	n/a	controlFoil2
206.024	n/a	n/a	n/a	n/a	90900	9	9	0	367	4	n/a	n/a
210.024	n/a	n/a	n/a	n/a	80500	8	5	0	368	4	n/a	n/a
214.028	3.5	genericItem	n/a	n/a	10501	1	5	1	369	4	n/a	n/a
218.027	3.5	genericItem	n/a	n/a	10502	1	5	2	370	4	n/a	n/a
222.026	3.5	criticalItem	n/a	n/a	20503	2	5	3	371	4	n/a	criticalFalse
226.027	3.5	genericItem	n/a	n/a	10504	1	5	4	372	4	n/a	n/a
230.026	3.5	criticalItem	n/a	n/a	20505	2	5	5	373	4	n/a	criticalTrue
234.028	3.5	genericItem	n/a	n/a	10506	1	5	6	374	4	n/a	n/a
238.028	3.5	genericItem	n/a	n/a	10507	1	5	7	375	4	n/a	n/a
242.028	3.5	genericItem	n/a	n/a	10508	1	5	8	376	4	n/a	n/a
246.027	3.5	genericItem	n/a	n/a	10509	1	5	9	377	4	n/a	n/a
250.027	3.5	genericItem	n/a	n/a	10510	1	5	10	378	4	n/a	n/a
254.028	3.5	genericItem	n/a	n/a	10511	1	5	11	379	4	n/a	n/a
258.027	3.5	genericItem	n/a	n/a	10512	1	5	12	380	4	n/a	n/a
262.027	3.5	genericItem	n/a	n/a	10513	1	5	13	381	4	n/a	n/a
266.026	3.5	controlItem	n/a	n/a	10514	1	5	14	382	4	n/a	controlTrue
270.028	3.5	controlItem	n/a	n/a	10515	1	5	15	383	4	n/a	controlFoil2
274.027	3.5	criticalItem	n/a	n/a	20516	2	5	16	384	4	n/a	criticalTrue
278.027	3.5	controlItem	n/a	n/a	10517	1	5	17	385	4	n/a	controlFoil2
282.026	3.5	controlItem	n/a	n/a	10518	1	5	18	386	4	n/a	controlTrue
286.028	3.5	criticalItem	n/a	n/a	20519	2	5	19	387	4	n/a	criticalFalse
290.028	3.5	genericItem	1	0.929	10520	1	5	20	388	4	1	n/a
294.027	3.5	criticalItem	n/a	n/a	20521	2	5	21	389	4	n/a	criticalFalse
298.028	3.5	controlItem	n/a	n/a	10522	1	5	22	390	4	n/a	controlTrue
302.027	3.5	criticalItem	n/a	n/a	20523	2	5	23	391	4	n/a	criticalFalse
306.028	3.5	controlItem	n/a	n/a	10524	1	5	24	392	4	n/a	controlTrue
310.028	3.5	controlItem	n/a	n/a	10525	1	5	25	393	4	n/a	controlFoil1
314.032	3.5	criticalItem	n/a	n/a	20526	2	5	26	394	4	n/a	criticalTrue
318.028	3.5	controlItem	n/a	n/a	10527	1	5	27	395	4	n/a	controlTrue
322.027	3.5	genericItem	n/a	n/a	10528	1	5	28	396	4	n/a	n/a
326.028	3.5	genericItem	n/a	n/a	10529	1	5	29	397	4	n/a	n/a
330.026	3.5	genericItem	n/a	n/a	10530	1	5	30	398	4	n/a	n/a
334.027	3.5	criticalItem	n/a	n/a	20531	2	5	31	399	4	n/a	criticalFalse
338.026	3.5	controlItem	n/a	n/a	10532	1	5	32	400	4	n/a	controlTrue
342.029	3.5	genericItem	n/a	n/a	10533	1	5	33	401	4	n/a	n/a
346.027	3.5	genericItem	n/a	n/a	10534	1	5	34	402	4	n/a	n/a
350.027	3.5	genericItem	n/a	n/a	10535	1	5	35	403	4	n/a	n/a
354.029	3.5	genericItem	n/a	n/a	10536	1	5	36	404	4	n/a	n/a
358.027	3.5	genericItem	1	0.715	10537	1	5	37	405	4	1	n/a
362.028	3.5	genericItem	n/a	n/a	10538	1	5	38	406	4	n/a	n/a
366.028	3.5	criticalItem	n/a	n/a	20539	2	5	39	407	4	n/a	criticalFoil
370.028	3.5	genericItem	n/a	n/a	10540	1	5	40	408	4	n/a	n/a
374.028	3.5	criticalItem	n/a	n/a	20541	2	5	41	409	4	n/a	criticalTrue
378.026	3.5	controlItem	n/a	n/a	10542	1	5	42	410	4	n/a	controlFoil1
382.027	3.5	genericItem	n/a	n/a	10543	1	5	43	411	4	n/a	n/a
386.027	3.5	genericItem	n/a	n/a	10544	1	5	44	412	4	n/a	n/a
390.028	3.5	genericItem	n/a	n/a	10545	1	5	45	413	4	n/a	n/a
394.026	3.5	controlItem	n/a	n/a	10546	1	5	46	414	4	n/a	controlTrue
398.026	3.5	criticalItem	n/a	n/a	20547	2	5	47	415	4	n/a	criticalTrue
402.027	3.5	genericItem	n/a	n/a	10548	1	5	48	416	4	n/a	n/a
406.027	3.5	controlItem	n/a	n/a	10549	1	5	49	417	4	n/a	controlTrue
410.026	3.5	criticalItem	n/a	n/a	20550	2	5	50	418	4	n/a	criticalTrue
414.024	n/a	n/a	n/a	n/a	90500	9	5	0	419	4	n/a	n/a
418.023	n/a	n/a	n/a	n/a	90000	9	0	0	420	4	n/a	n/a
