onset	duration	trial_type	response	response_time	stim_id	stim_version	stim_events	stim_slides	trial_id	run_id	stim_redcross	subsequent_response_type
2.0339	n/a	n/a	n/a	n/a	80700	8	7	0	316	4	n/a	n/a
6.0218	3.5	genericItem	n/a	n/a	10701	1	7	1	317	4	n/a	n/a
10.0197	3.5	genericItem	n/a	n/a	10702	1	7	2	318	4	n/a	n/a
14.0211	3.5	controlItem	n/a	n/a	10703	1	7	3	319	4	n/a	controlTrue
18.02	3.5	criticalItem	n/a	n/a	20704	2	7	4	320	4	n/a	criticalFalse
22.0205	3.5	controlItem	n/a	n/a	10705	1	7	5	321	4	n/a	controlTrue
26.0194	3.5	genericItem	n/a	n/a	10706	1	7	6	322	4	n/a	n/a
30.0212	3.5	controlItem	n/a	n/a	10707	1	7	7	323	4	n/a	controlFoil2
34.0215	3.5	controlItem	n/a	n/a	10708	1	7	8	324	4	n/a	controlTrue
38.02	3.5	criticalItem	n/a	n/a	20709	2	7	9	325	4	n/a	criticalFoil
42.0204	3.5	genericItem	1	0.608	10710	1	7	10	326	4	1	n/a
46.0197	3.5	controlItem	n/a	n/a	10711	1	7	11	327	4	n/a	controlFoil1
50.0205	3.5	criticalItem	n/a	n/a	20712	2	7	12	328	4	n/a	criticalFalse
54.0205	3.5	genericItem	n/a	n/a	10713	1	7	13	329	4	n/a	n/a
58.0199	3.5	controlItem	n/a	n/a	10714	1	7	14	330	4	n/a	controlTrue
62.0199	3.5	genericItem	n/a	n/a	10715	1	7	15	331	4	n/a	n/a
66.0206	3.5	genericItem	n/a	n/a	10716	1	7	16	332	4	n/a	n/a
70.0196	3.5	genericItem	n/a	n/a	10717	1	7	17	333	4	n/a	n/a
74.0199	3.5	controlItem	n/a	n/a	10718	1	7	18	334	4	n/a	controlFoil2
78.0207	3.5	criticalItem	n/a	n/a	20719	2	7	19	335	4	n/a	criticalTrue
82.0203	3.5	controlItem	n/a	n/a	10720	1	7	20	336	4	n/a	controlTrue
86.0199	3.5	criticalItem	n/a	n/a	20721	2	7	21	337	4	n/a	criticalTrue
90.0199	3.5	genericItem	n/a	n/a	10722	1	7	22	338	4	n/a	n/a
94.0202	3.5	genericItem	n/a	n/a	10723	1	7	23	339	4	n/a	n/a
98.0201	3.5	genericItem	n/a	n/a	10724	1	7	24	340	4	n/a	n/a
102.02	3.5	genericItem	1	0.258	10725	1	7	25	341	4	1	n/a
106.022	3.5	criticalItem	n/a	n/a	20726	2	7	26	342	4	n/a	criticalFalse
110.019	3.5	genericItem	n/a	n/a	10727	1	7	27	343	4	n/a	n/a
114.02	3.5	controlItem	n/a	n/a	10728	1	7	28	344	4	n/a	controlTrue
118.02	3.5	criticalItem	n/a	n/a	20729	2	7	29	345	4	n/a	criticalTrue
122.02	3.5	genericItem	1	0.462	10730	1	7	30	346	4	1	n/a
126.02	3.5	genericItem	n/a	n/a	10731	1	7	31	347	4	n/a	n/a
130.02	3.5	genericItem	n/a	n/a	10732	1	7	32	348	4	n/a	n/a
134.021	3.5	genericItem	n/a	n/a	10733	1	7	33	349	4	n/a	n/a
138.021	3.5	controlItem	n/a	n/a	10734	1	7	34	350	4	n/a	n/a
142.02	3.5	criticalItem	n/a	n/a	20735	2	7	35	351	4	n/a	criticalTrue
146.02	3.5	genericItem	n/a	n/a	10736	1	7	36	352	4	n/a	n/a
150.02	3.5	genericItem	n/a	n/a	10737	1	7	37	353	4	n/a	n/a
154.02	3.5	genericItem	n/a	n/a	10738	1	7	38	354	4	n/a	n/a
158.021	3.5	criticalItem	n/a	n/a	20739	2	7	39	355	4	n/a	criticalFalse
162.019	3.5	controlItem	n/a	n/a	10740	1	7	40	356	4	n/a	controlTrue
166.02	3.5	genericItem	n/a	n/a	10741	1	7	41	357	4	n/a	n/a
170.02	3.5	genericItem	n/a	n/a	10742	1	7	42	358	4	n/a	n/a
174.02	3.5	genericItem	n/a	n/a	10743	1	7	43	359	4	n/a	n/a
178.02	3.5	criticalItem	n/a	n/a	20744	2	7	44	360	4	n/a	criticalTrue
182.02	3.5	genericItem	n/a	n/a	10745	1	7	45	361	4	n/a	n/a
186.02	3.5	criticalItem	n/a	n/a	20746	2	7	46	362	4	n/a	criticalTrue
190.02	3.5	genericItem	n/a	n/a	10747	1	7	47	363	4	n/a	n/a
194.02	3.5	genericItem	n/a	n/a	10748	1	7	48	364	4	n/a	n/a
198.02	3.5	criticalItem	n/a	n/a	20749	2	7	49	365	4	n/a	criticalFalse
202.019	3.5	controlItem	n/a	n/a	10750	1	7	50	366	4	n/a	controlTrue
206.019	n/a	n/a	n/a	n/a	90700	9	7	0	367	4	n/a	n/a
210.02	n/a	n/a	n/a	n/a	80500	8	5	0	368	4	n/a	n/a
214.021	3.5	genericItem	n/a	n/a	10501	1	5	1	369	4	n/a	n/a
218.019	3.5	genericItem	n/a	n/a	10502	1	5	2	370	4	n/a	n/a
222.02	3.5	criticalItem	n/a	n/a	10503	1	5	3	371	4	n/a	criticalFoil
226.02	3.5	genericItem	n/a	n/a	10504	1	5	4	372	4	n/a	n/a
230.02	3.5	criticalItem	n/a	n/a	10505	1	5	5	373	4	n/a	criticalFalse
234.02	3.5	genericItem	n/a	n/a	10506	1	5	6	374	4	n/a	n/a
238.02	3.5	genericItem	n/a	n/a	10507	1	5	7	375	4	n/a	n/a
242.019	3.5	genericItem	n/a	n/a	10508	1	5	8	376	4	n/a	n/a
246.02	3.5	genericItem	1	0.576	10509	1	5	9	377	4	1	n/a
250.02	3.5	genericItem	n/a	n/a	10510	1	5	10	378	4	n/a	n/a
254.02	3.5	genericItem	n/a	n/a	10511	1	5	11	379	4	n/a	n/a
258.019	3.5	genericItem	n/a	n/a	10512	1	5	12	380	4	n/a	n/a
262.02	3.5	genericItem	n/a	n/a	10513	1	5	13	381	4	n/a	n/a
266.02	3.5	controlItem	n/a	n/a	10514	1	5	14	382	4	n/a	controlTrue
270.02	3.5	controlItem	n/a	n/a	10515	1	5	15	383	4	n/a	controlFoil1
274.02	3.5	criticalItem	n/a	n/a	10516	1	5	16	384	4	n/a	criticalFalse
278.02	3.5	controlItem	n/a	n/a	10517	1	5	17	385	4	n/a	controlTrue
282.02	3.5	controlItem	n/a	n/a	10518	1	5	18	386	4	n/a	controlTrue
286.02	3.5	criticalItem	n/a	n/a	10519	1	5	19	387	4	n/a	criticalFalse
290.02	3.5	genericItem	1	0.728	10520	1	5	20	388	4	1	n/a
294.022	3.5	criticalItem	n/a	n/a	10521	1	5	21	389	4	n/a	criticalFalse
298.02	3.5	controlItem	n/a	n/a	10522	1	5	22	390	4	n/a	controlFoil1
302.02	3.5	criticalItem	n/a	n/a	10523	1	5	23	391	4	n/a	criticalTrue
306.019	3.5	controlItem	n/a	n/a	10524	1	5	24	392	4	n/a	controlTrue
310.02	3.5	controlItem	n/a	n/a	10525	1	5	25	393	4	n/a	controlFoil2
314.02	3.5	criticalItem	n/a	n/a	10526	1	5	26	394	4	n/a	criticalTrue
318.019	3.5	controlItem	n/a	n/a	10527	1	5	27	395	4	n/a	controlTrue
322.02	3.5	genericItem	n/a	n/a	10528	1	5	28	396	4	n/a	n/a
326.02	3.5	genericItem	n/a	n/a	10529	1	5	29	397	4	n/a	n/a
330.02	3.5	genericItem	n/a	n/a	10530	1	5	30	398	4	n/a	n/a
334.02	3.5	criticalItem	n/a	n/a	10531	1	5	31	399	4	n/a	criticalTrue
338.02	3.5	controlItem	n/a	n/a	10532	1	5	32	400	4	n/a	controlTrue
342.02	3.5	genericItem	1	0.58	10533	1	5	33	401	4	1	n/a
346.02	3.5	genericItem	n/a	n/a	10534	1	5	34	402	4	n/a	n/a
350.02	3.5	genericItem	n/a	n/a	10535	1	5	35	403	4	n/a	n/a
354.02	3.5	genericItem	n/a	n/a	10536	1	5	36	404	4	n/a	n/a
358.021	3.5	genericItem	n/a	n/a	10537	1	5	37	405	4	n/a	n/a
362.02	3.5	genericItem	n/a	n/a	10538	1	5	38	406	4	n/a	n/a
366.019	3.5	criticalItem	n/a	n/a	10539	1	5	39	407	4	n/a	criticalFalse
370.021	3.5	genericItem	n/a	n/a	10540	1	5	40	408	4	n/a	n/a
374.02	3.5	criticalItem	n/a	n/a	10541	1	5	41	409	4	n/a	criticalTrue
378.02	3.5	controlItem	n/a	n/a	10542	1	5	42	410	4	n/a	controlTrue
382.021	3.5	genericItem	n/a	n/a	10543	1	5	43	411	4	n/a	n/a
386.019	3.5	genericItem	n/a	n/a	10544	1	5	44	412	4	n/a	n/a
390.02	3.5	genericItem	n/a	n/a	10545	1	5	45	413	4	n/a	n/a
394.019	3.5	controlItem	n/a	n/a	10546	1	5	46	414	4	n/a	controlTrue
398.019	3.5	criticalItem	n/a	n/a	10547	1	5	47	415	4	n/a	criticalFoil
402.019	3.5	genericItem	n/a	n/a	10548	1	5	48	416	4	n/a	n/a
406.019	3.5	controlItem	n/a	n/a	10549	1	5	49	417	4	n/a	controlTrue
410.02	3.5	criticalItem	n/a	n/a	10550	1	5	50	418	4	n/a	criticalTrue
414.02	n/a	n/a	n/a	n/a	90500	9	5	0	419	4	n/a	n/a
418.02	n/a	n/a	n/a	n/a	90000	5	0	0	420	4	n/a	n/a
