onset	duration	trial_type	response	response_time	stim_id	stim_version	stim_events	stim_slides	trial_id	run_id	stim_redcross	subsequent_response_type
2.0637	n/a	n/a	n/a	n/a	80300	8	3	0	316	4	n/a	n/a
6.0931	3.5	genericItem	n/a	n/a	10301	1	3	1	317	4	n/a	n/a
10.0887	3.5	genericItem	n/a	n/a	10302	1	3	2	318	4	n/a	n/a
14.0272	3.5	controlItem	n/a	n/a	10303	1	3	3	319	4	n/a	controlTrue
18.0805	3.5	genericItem	1	0.558	10304	1	3	4	320	4	1	n/a
22.0701	3.5	criticalItem	n/a	n/a	10305	1	3	5	321	4	n/a	criticalFalse
26.1048	3.5	genericItem	n/a	n/a	10306	1	3	6	322	4	n/a	n/a
30.0809	3.5	genericItem	n/a	n/a	10307	1	3	7	323	4	n/a	n/a
34.0631	3.5	genericItem	n/a	n/a	10308	1	3	8	324	4	n/a	n/a
38.0661	3.5	controlItem	n/a	n/a	10309	1	3	9	325	4	n/a	controlTrue
42.1064	3.5	genericItem	n/a	n/a	10310	1	3	10	326	4	n/a	n/a
46.0894	3.5	genericItem	n/a	n/a	10311	1	3	11	327	4	n/a	n/a
50.0475	3.5	genericItem	n/a	n/a	10312	1	3	12	328	4	n/a	n/a
54.0395	3.5	controlItem	n/a	n/a	10313	1	3	13	329	4	n/a	controlTrue
58.069	3.5	genericItem	n/a	n/a	10314	1	3	14	330	4	n/a	n/a
62.0895	3.5	genericItem	n/a	n/a	10315	1	3	15	331	4	n/a	n/a
66.08	3.5	criticalItem	n/a	n/a	10316	1	3	16	332	4	n/a	criticalFalse
70.0643	3.5	controlItem	n/a	n/a	10317	1	3	17	333	4	n/a	controlTrue
74.0851	3.5	genericItem	n/a	n/a	10318	1	3	18	334	4	n/a	n/a
78.0876	3.5	criticalItem	n/a	n/a	10319	1	3	19	335	4	n/a	criticalFalse
82.0691	3.5	controlItem	n/a	n/a	10320	1	3	20	336	4	n/a	controlTrue
86.0651	3.5	genericItem	n/a	n/a	10321	1	3	21	337	4	n/a	n/a
90.1056	3.5	criticalItem	n/a	n/a	10322	1	3	22	338	4	n/a	criticalFalse
94.0672	3.5	genericItem	n/a	n/a	10323	1	3	23	339	4	n/a	n/a
98.0679	3.5	criticalItem	n/a	n/a	10324	1	3	24	340	4	n/a	criticalFalse
102.09	3.5	controlItem	n/a	n/a	10325	1	3	25	341	4	n/a	controlTrue
106.092	3.5	genericItem	n/a	n/a	10326	1	3	26	342	4	n/a	n/a
110.045	3.5	criticalItem	n/a	n/a	10327	1	3	27	343	4	n/a	criticalFalse
114.081	3.5	genericItem	n/a	n/a	10328	1	3	28	344	4	n/a	n/a
118.063	3.5	controlItem	n/a	n/a	10329	1	3	29	345	4	n/a	controlTrue
122.103	3.5	criticalItem	n/a	n/a	10330	1	3	30	346	4	n/a	criticalFoil
126.095	3.5	controlItem	n/a	n/a	10331	1	3	31	347	4	n/a	controlTrue
130.072	3.5	criticalItem	n/a	n/a	10332	1	3	32	348	4	n/a	criticalFalse
134.085	3.5	genericItem	n/a	n/a	10333	1	3	33	349	4	n/a	n/a
138.106	3.5	genericItem	n/a	n/a	10334	1	3	34	350	4	n/a	n/a
142.062	3.5	genericItem	n/a	n/a	10335	1	3	35	351	4	n/a	n/a
146.089	3.5	criticalItem	n/a	n/a	10336	1	3	36	352	4	n/a	criticalFalse
150.093	3.5	genericItem	1	0.472	10337	1	3	37	353	4	1	n/a
154.112	3.5	genericItem	n/a	n/a	10338	1	3	38	354	4	n/a	n/a
158.089	3.5	genericItem	n/a	n/a	10339	1	3	39	355	4	n/a	n/a
162.082	3.5	genericItem	n/a	n/a	10340	1	3	40	356	4	n/a	n/a
166.065	3.5	criticalItem	n/a	n/a	10341	1	3	41	357	4	n/a	criticalFalse
170.047	3.5	controlItem	n/a	n/a	10342	1	3	42	358	4	n/a	controlFoil1
174.093	3.5	genericItem	n/a	n/a	10343	1	3	43	359	4	n/a	n/a
178.065	3.5	criticalItem	n/a	n/a	10344	1	3	44	360	4	n/a	criticalTrue
182.083	3.5	controlItem	n/a	n/a	10345	1	3	45	361	4	n/a	controlTrue
186.081	3.5	genericItem	n/a	n/a	10346	1	3	46	362	4	n/a	n/a
190.091	3.5	criticalItem	n/a	n/a	10347	1	3	47	363	4	n/a	criticalFalse
194.101	3.5	controlItem	n/a	n/a	10348	1	3	48	364	4	n/a	controlTrue
198.091	3.5	genericItem	1	0.411	10349	1	3	49	365	4	1	n/a
202.063	3.5	controlItem	n/a	n/a	10350	1	3	50	366	4	n/a	controlTrue
206.061	n/a	n/a	n/a	n/a	90300	9	3	0	367	4	n/a	n/a
210.087	n/a	n/a	n/a	n/a	80400	8	4	0	368	4	n/a	n/a
214.092	3.5	genericItem	n/a	n/a	10401	1	4	1	369	4	n/a	n/a
218.064	3.5	genericItem	n/a	n/a	10402	1	4	2	370	4	n/a	n/a
222.091	3.5	genericItem	n/a	n/a	10403	1	4	3	371	4	n/a	n/a
226.121	3.5	criticalItem	n/a	n/a	20404	2	4	4	372	4	n/a	criticalTrue
230.127	3.5	genericItem	1	0.641	10405	1	4	5	373	4	1	n/a
234.115	3.5	genericItem	n/a	n/a	10406	1	4	6	374	4	n/a	n/a
238.065	3.5	criticalItem	n/a	n/a	20407	2	4	7	375	4	n/a	criticalFalse
242.065	3.5	genericItem	n/a	n/a	10408	1	4	8	376	4	n/a	n/a
246.096	3.5	controlItem	n/a	n/a	10409	1	4	9	377	4	n/a	controlTrue
250.101	3.5	genericItem	n/a	n/a	10410	1	4	10	378	4	n/a	n/a
254.103	3.5	criticalItem	n/a	n/a	20411	2	4	11	379	4	n/a	criticalFoil
258.096	3.5	controlItem	n/a	n/a	10412	1	4	12	380	4	n/a	controlTrue
262.064	3.5	genericItem	1	0.914	10413	1	4	13	381	4	1	n/a
266.121	3.5	genericItem	n/a	n/a	10414	1	4	14	382	4	n/a	n/a
270.042	3.5	criticalItem	n/a	n/a	20415	2	4	15	383	4	n/a	criticalFalse
274.069	3.5	controlItem	n/a	n/a	10416	1	4	16	384	4	n/a	controlFoil1
278.083	3.5	criticalItem	n/a	n/a	20417	2	4	17	385	4	n/a	criticalFalse
282.108	3.5	genericItem	n/a	n/a	10418	1	4	18	386	4	n/a	n/a
286.029	3.5	criticalItem	n/a	n/a	20419	2	4	19	387	4	n/a	criticalTrue
290.118	3.5	genericItem	n/a	n/a	10420	1	4	20	388	4	n/a	n/a
294.029	3.5	genericItem	n/a	n/a	10421	1	4	21	389	4	n/a	n/a
298.074	3.5	controlItem	n/a	n/a	10422	1	4	22	390	4	n/a	controlFoil1
302.067	3.5	genericItem	n/a	n/a	10423	1	4	23	391	4	n/a	n/a
306.043	3.5	criticalItem	n/a	n/a	20424	2	4	24	392	4	n/a	criticalFalse
310.092	3.5	controlItem	n/a	n/a	10425	1	4	25	393	4	n/a	controlTrue
314.105	3.5	genericItem	n/a	n/a	10426	1	4	26	394	4	n/a	n/a
318.098	3.5	genericItem	n/a	n/a	10427	1	4	27	395	4	n/a	n/a
322.065	3.5	genericItem	n/a	n/a	10428	1	4	28	396	4	n/a	n/a
326.089	3.5	criticalItem	n/a	n/a	20429	2	4	29	397	4	n/a	criticalTrue
330.107	3.5	controlItem	n/a	n/a	10430	1	4	30	398	4	n/a	controlFoil2
334.069	3.5	genericItem	1	0.532	10431	1	4	31	399	4	1	n/a
338.03	3.5	genericItem	n/a	n/a	10432	1	4	32	400	4	n/a	n/a
342.095	3.5	genericItem	n/a	n/a	10433	1	4	33	401	4	n/a	n/a
346.072	3.5	genericItem	n/a	n/a	10434	1	4	34	402	4	n/a	n/a
350.118	3.5	genericItem	1	0.54	10435	1	4	35	403	4	1	n/a
354.094	3.5	criticalItem	n/a	n/a	20436	2	4	36	404	4	n/a	criticalFalse
358.071	3.5	genericItem	n/a	n/a	10437	1	4	37	405	4	n/a	n/a
362.111	3.5	criticalItem	n/a	n/a	20438	2	4	38	406	4	n/a	criticalFalse
366.047	3.5	genericItem	n/a	n/a	10439	1	4	39	407	4	n/a	n/a
370.029	3.5	criticalItem	n/a	n/a	20440	2	4	40	408	4	n/a	criticalFalse
374.087	3.5	genericItem	n/a	n/a	10441	1	4	41	409	4	n/a	n/a
378.095	3.5	controlItem	n/a	n/a	10442	1	4	42	410	4	n/a	controlTrue
382.088	3.5	controlItem	n/a	n/a	10443	1	4	43	411	4	n/a	controlTrue
386.083	3.5	controlItem	n/a	n/a	10444	1	4	44	412	4	n/a	controlTrue
390.081	3.5	genericItem	n/a	n/a	10445	1	4	45	413	4	n/a	n/a
394.066	3.5	controlItem	n/a	n/a	10446	1	4	46	414	4	n/a	controlTrue
398.084	3.5	genericItem	n/a	n/a	10447	1	4	47	415	4	n/a	n/a
402.091	3.5	controlItem	n/a	n/a	10448	1	4	48	416	4	n/a	controlFoil1
406.064	3.5	criticalItem	n/a	n/a	20449	2	4	49	417	4	n/a	criticalTrue
410.107	3.5	controlItem	n/a	n/a	10450	1	4	50	418	4	n/a	controlTrue
414.076	n/a	n/a	n/a	n/a	90400	9	4	0	419	4	n/a	n/a
418.023	n/a	n/a	n/a	n/a	90000	9	0	0	420	4	n/a	n/a
