onset	duration	trial_type	response	response_time	stim_id	stim_events	stim_slides	trial_id	run_id	stim_type	response_type
2.0071	n/a	n/a	n/a	n/a	80500	5	0	149	2	8	n/a
12.0051	3.5	criticalItem	n/a	n/a	10539	5	39	150	2	1	n/a
15.4891	3.0	criticalItem	n/a	n/a	50539	5	39	151	2	0	n/a
18.4882	3.0	criticalItem	Foil	0.663	50539	5	39	152	2	5	criticalFoil
22.0062	3.5	controlItem	n/a	n/a	10517	5	17	153	2	1	n/a
25.4884	3.0	controlItem	n/a	n/a	60517	5	17	154	2	0	n/a
28.4874	3.0	controlItem	Foil2	0.831	60517	5	17	155	2	6	controlFoil2
32.0031	3.5	controlItem	n/a	n/a	10514	5	14	156	2	1	n/a
35.4874	3.0	controlItem	n/a	n/a	70514	5	14	157	2	0	n/a
38.4867	3.0	controlItem	True	1.71	70514	5	14	158	2	7	controlTrue
42.0024	3.5	controlItem	n/a	n/a	10532	5	32	159	2	1	n/a
45.4875	3.0	controlItem	n/a	n/a	40532	5	32	160	2	0	n/a
48.4871	3.0	controlItem	True	0.719	40532	5	32	161	2	4	controlTrue
52.0009	3.5	controlItem	n/a	n/a	10518	5	18	162	2	1	n/a
55.4847	3.0	controlItem	n/a	n/a	60518	5	18	163	2	0	n/a
58.4845	3.0	controlItem	True	0.592	60518	5	18	164	2	6	controlTrue
62.0003	3.5	controlItem	n/a	n/a	10522	5	22	165	2	1	n/a
65.4839	3.0	controlItem	n/a	n/a	30522	5	22	166	2	0	n/a
68.483	3.0	controlItem	True	1.479	30522	5	22	167	2	3	controlTrue
71.9996	3.5	controlItem	n/a	n/a	10546	5	46	168	2	1	n/a
75.4823	3.0	controlItem	n/a	n/a	20546	5	46	169	2	0	n/a
78.4831	3.0	controlItem	True	0.814	20546	5	46	170	2	2	controlTrue
82.0151	3.5	criticalItem	n/a	n/a	10523	5	23	171	2	1	n/a
85.4998	3.0	criticalItem	n/a	n/a	70523	5	23	172	2	0	n/a
88.498	3.0	criticalItem	False	0.851	70523	5	23	173	2	7	criticalFalse
92.0146	3.5	controlItem	n/a	n/a	10542	5	42	174	2	1	n/a
95.4989	3.0	controlItem	n/a	n/a	30542	5	42	175	2	0	n/a
98.4985	3.0	controlItem	Foil2	1.069	30542	5	42	176	2	3	controlFoil2
102.014	3.5	criticalItem	n/a	n/a	10519	5	19	177	2	1	n/a
105.496	3.0	criticalItem	n/a	n/a	50519	5	19	178	2	0	n/a
108.496	3.0	criticalItem	True	1.011	50519	5	19	179	2	5	criticalTrue
112.012	3.5	controlItem	n/a	n/a	10549	5	49	180	2	1	n/a
115.496	3.0	controlItem	n/a	n/a	40549	5	49	181	2	0	n/a
118.495	3.0	controlItem	True	1.814	40549	5	49	182	2	4	controlTrue
122.011	3.5	criticalItem	n/a	n/a	10541	5	41	183	2	1	n/a
125.495	3.0	criticalItem	n/a	n/a	30541	5	41	184	2	0	n/a
128.494	3.0	criticalItem	False	1.425	30541	5	41	185	2	3	criticalFalse
132.011	3.5	criticalItem	n/a	n/a	10547	5	47	186	2	1	n/a
135.494	3.0	criticalItem	n/a	n/a	60547	5	47	187	2	0	n/a
138.494	3.0	criticalItem	Foil	0.844	60547	5	47	188	2	6	criticalFoil
142.009	3.5	criticalItem	n/a	n/a	10550	5	50	189	2	1	n/a
145.492	3.0	criticalItem	n/a	n/a	70550	5	50	190	2	0	n/a
148.492	3.0	criticalItem	True	2.204	70550	5	50	191	2	7	criticalTrue
152.009	3.5	criticalItem	n/a	n/a	10531	5	31	192	2	1	n/a
155.493	3.0	criticalItem	n/a	n/a	40531	5	31	193	2	0	n/a
158.491	3.0	criticalItem	False	0.815	40531	5	31	194	2	4	criticalFalse
162.007	3.5	criticalItem	n/a	n/a	10503	5	3	195	2	1	n/a
165.49	3.0	criticalItem	n/a	n/a	60503	5	3	196	2	0	n/a
168.491	3.0	criticalItem	False	1.132	60503	5	3	197	2	6	criticalFalse
172.008	3.5	controlItem	n/a	n/a	10524	5	24	198	2	1	n/a
175.49	3.0	controlItem	n/a	n/a	40524	5	24	199	2	0	n/a
178.491	3.0	controlItem	True	0.842	40524	5	24	200	2	4	controlTrue
182.005	3.5	controlItem	n/a	n/a	10527	5	27	201	2	1	n/a
185.49	3.0	controlItem	n/a	n/a	30527	5	27	202	2	0	n/a
188.488	3.0	controlItem	Foil1	1.648	30527	5	27	203	2	3	controlFoil1
192.004	3.5	criticalItem	n/a	n/a	10516	5	16	204	2	1	n/a
195.488	3.0	criticalItem	n/a	n/a	40516	5	16	205	2	0	n/a
198.487	3.0	criticalItem	True	0.67	40516	5	16	206	2	4	criticalTrue
202.003	3.5	criticalItem	n/a	n/a	10526	5	26	207	2	1	n/a
205.486	3.0	criticalItem	n/a	n/a	40526	5	26	208	2	0	n/a
208.486	3.0	criticalItem	True	1.496	40526	5	26	209	2	4	criticalTrue
212.002	3.5	controlItem	n/a	n/a	10525	5	25	210	2	1	n/a
215.485	3.0	controlItem	n/a	n/a	40525	5	25	211	2	0	n/a
218.485	3.0	controlItem	True	1.164	40525	5	25	212	2	4	controlTrue
222.001	3.5	controlItem	n/a	n/a	10515	5	15	213	2	1	n/a
225.484	3.0	controlItem	n/a	n/a	60515	5	15	214	2	0	n/a
228.484	3.0	controlItem	Foil2	0.552	60515	5	15	215	2	6	controlFoil2
232	3.5	criticalItem	n/a	n/a	10505	5	5	216	2	1	n/a
235.485	3.0	criticalItem	n/a	n/a	70505	5	5	217	2	0	n/a
238.483	3.0	criticalItem	False	1.532	70505	5	5	218	2	7	criticalFalse
242.016	3.5	criticalItem	n/a	n/a	10521	5	21	219	2	1	n/a
245.5	3.0	criticalItem	n/a	n/a	70521	5	21	220	2	0	n/a
248.499	3.0	criticalItem	True	1.176	70521	5	21	221	2	7	criticalTrue
252.015	n/a	n/a	n/a	n/a	90500	5	0	222	2	9	n/a
256	n/a	n/a	n/a	n/a	80300	3	0	223	2	8	n/a
266.015	3.5	controlItem	n/a	n/a	10348	3	48	224	2	1	n/a
269.498	3.0	controlItem	n/a	n/a	30348	3	48	225	2	0	n/a
272.497	3.0	controlItem	True	0.836	30348	3	48	226	2	3	controlTrue
276.012	3.5	controlItem	n/a	n/a	10303	3	3	227	2	1	n/a
279.496	3.0	controlItem	n/a	n/a	50303	3	3	228	2	0	n/a
282.496	3.0	controlItem	True	1.151	50303	3	3	229	2	5	controlTrue
286.011	3.5	criticalItem	n/a	n/a	10341	3	41	230	2	1	n/a
289.496	3.0	criticalItem	n/a	n/a	30341	3	41	231	2	0	n/a
292.495	3.0	criticalItem	False	1.325	30341	3	41	232	2	3	criticalFalse
296.01	3.5	controlItem	n/a	n/a	10317	3	17	233	2	1	n/a
299.494	3.0	controlItem	ForbiddenKey	2.648	70317	3	17	234	2	0	n/a
302.493	3.0	controlItem	True	0.97	70317	3	17	235	2	7	controlTrue
306.009	3.5	controlItem	n/a	n/a	10320	3	20	236	2	1	n/a
309.492	3.0	controlItem	n/a	n/a	50320	3	20	237	2	0	n/a
312.492	3.0	controlItem	True	0.639	50320	3	20	238	2	5	controlTrue
316.01	3.5	controlItem	n/a	n/a	10313	3	13	239	2	1	n/a
319.494	3.0	controlItem	n/a	n/a	30313	3	13	240	2	0	n/a
322.493	3.0	controlItem	True	0.725	30313	3	13	241	2	3	controlTrue
326.008	3.5	criticalItem	n/a	n/a	10319	3	19	242	2	1	n/a
329.491	3.0	criticalItem	n/a	n/a	70319	3	19	243	2	0	n/a
332.492	3.0	criticalItem	False	1.045	70319	3	19	244	2	7	criticalFalse
336.006	3.5	controlItem	n/a	n/a	10329	3	29	245	2	1	n/a
339.49	3.0	controlItem	n/a	n/a	70329	3	29	246	2	0	n/a
342.49	3.0	controlItem	True	0.884	70329	3	29	247	2	7	controlTrue
346.007	3.5	criticalItem	n/a	n/a	10305	3	5	248	2	1	n/a
349.49	3.0	criticalItem	n/a	n/a	30305	3	5	249	2	0	n/a
352.489	3.0	criticalItem	False	1.394	30305	3	5	250	2	3	criticalFalse
356.004	3.5	controlItem	n/a	n/a	10345	3	45	251	2	1	n/a
359.488	3.0	controlItem	n/a	n/a	60345	3	45	252	2	0	n/a
362.488	3.0	controlItem	Foil1	0.783	60345	3	45	253	2	6	controlFoil1
366.004	3.5	controlItem	n/a	n/a	10309	3	9	254	2	1	n/a
369.487	3.0	controlItem	n/a	n/a	20309	3	9	255	2	0	n/a
372.486	3.0	controlItem	True	1.299	20309	3	9	256	2	2	controlTrue
376.004	3.5	criticalItem	n/a	n/a	10344	3	44	257	2	1	n/a
379.487	3.0	criticalItem	n/a	n/a	20344	3	44	258	2	0	n/a
382.486	3.0	criticalItem	Foil	1.541	20344	3	44	259	2	2	criticalFoil
386.002	3.5	criticalItem	n/a	n/a	10324	3	24	260	2	1	n/a
389.485	3.0	criticalItem	n/a	n/a	50324	3	24	261	2	0	n/a
392.485	3.0	criticalItem	True	1.302	50324	3	24	262	2	5	criticalTrue
396.001	3.5	criticalItem	n/a	n/a	10330	3	30	263	2	1	n/a
399.484	3.0	criticalItem	n/a	n/a	30330	3	30	264	2	0	n/a
402.484	3.0	criticalItem	False	0.936	30330	3	30	265	2	3	criticalFalse
406	3.5	criticalItem	n/a	n/a	10316	3	16	266	2	1	n/a
409.484	3.0	criticalItem	n/a	n/a	20316	3	16	267	2	0	n/a
412.483	3.0	criticalItem	True	1.352	20316	3	16	268	2	2	criticalTrue
416.015	3.5	criticalItem	n/a	n/a	10336	3	36	269	2	1	n/a
419.5	3.0	criticalItem	n/a	n/a	50336	3	36	270	2	0	n/a
422.498	3.0	criticalItem	False	0.879	50336	3	36	271	2	5	criticalFalse
426.014	3.5	controlItem	n/a	n/a	10325	3	25	272	2	1	n/a
429.497	3.0	controlItem	n/a	n/a	40325	3	25	273	2	0	n/a
432.497	3.0	controlItem	True	1.082	40325	3	25	274	2	4	controlTrue
436.013	3.5	criticalItem	n/a	n/a	10347	3	47	275	2	1	n/a
439.497	3.0	criticalItem	n/a	n/a	70347	3	47	276	2	0	n/a
442.498	3.0	criticalItem	False	0.751	70347	3	47	277	2	7	criticalFalse
446.012	3.5	controlItem	n/a	n/a	10331	3	31	278	2	1	n/a
449.496	3.0	controlItem	n/a	n/a	50331	3	31	279	2	0	n/a
452.495	3.0	controlItem	Foil1	0.613	50331	3	31	280	2	5	controlFoil1
456.012	3.5	criticalItem	n/a	n/a	10332	3	32	281	2	1	n/a
459.495	3.0	criticalItem	n/a	n/a	70332	3	32	282	2	0	n/a
462.494	3.0	criticalItem	False	0.844	70332	3	32	283	2	7	criticalFalse
466.01	3.5	criticalItem	n/a	n/a	10327	3	27	284	2	1	n/a
469.493	3.0	criticalItem	n/a	n/a	20327	3	27	285	2	0	n/a
472.493	3.0	criticalItem	False	1.151	20327	3	27	286	2	2	criticalFalse
476.009	3.5	criticalItem	n/a	n/a	10322	3	22	287	2	1	n/a
479.494	3.0	criticalItem	n/a	n/a	30322	3	22	288	2	0	n/a
482.494	3.0	criticalItem	False	1.622	30322	3	22	289	2	3	criticalFalse
486.008	3.5	controlItem	n/a	n/a	10342	3	42	290	2	1	n/a
489.493	3.0	controlItem	n/a	n/a	60342	3	42	291	2	0	n/a
492.493	3.0	controlItem	Foil1	0.599	60342	3	42	292	2	6	controlFoil1
496.009	3.5	controlItem	n/a	n/a	10350	3	50	293	2	1	n/a
499.491	3.0	controlItem	n/a	n/a	40350	3	50	294	2	0	n/a
502.49	3.0	controlItem	True	1.998	40350	3	50	295	2	4	controlTrue
506.007	n/a	n/a	n/a	n/a	90300	3	0	296	2	9	n/a
