onset	duration	trial_type	response	response_time	stim_id	stim_events	stim_slides	trial_id	run_id	stim_type	response_type
2.00831	n/a	n/a	n/a	n/a	80900	9	0	1	1	8	n/a
12.0072	3.5	controlItem	n/a	n/a	10915	9	15	2	1	1	n/a
15.4917	3.0	controlItem	n/a	n/a	40915	9	15	3	1	0	n/a
18.4915	3.0	controlItem	True	0.649	40915	9	15	4	1	4	controlTrue
22.0067	3.5	criticalItem	n/a	n/a	10928	9	28	5	1	1	n/a
25.4895	3.0	criticalItem	n/a	n/a	20928	9	28	6	1	0	n/a
28.4895	3.0	criticalItem	False	0.805	20928	9	28	7	1	2	criticalFalse
32.0057	3.5	criticalItem	n/a	n/a	10908	9	8	8	1	1	n/a
35.4883	3.0	criticalItem	n/a	n/a	20908	9	8	9	1	0	n/a
38.49	3.0	criticalItem	False	0.583	20908	9	8	10	1	2	criticalFalse
42.0042	3.5	controlItem	n/a	n/a	10943	9	43	11	1	1	n/a
45.4883	3.0	controlItem	n/a	n/a	30943	9	43	12	1	0	n/a
48.4871	3.0	controlItem	True	0.61	30943	9	43	13	1	3	controlTrue
52.003	3.5	controlItem	n/a	n/a	10909	9	9	14	1	1	n/a
55.4863	3.0	controlItem	n/a	n/a	50909	9	9	15	1	0	n/a
58.4861	3.0	controlItem	Foil1	1.225	50909	9	9	16	1	5	controlFoil1
62.0022	3.5	controlItem	n/a	n/a	10950	9	50	17	1	1	n/a
65.4855	3.0	controlItem	n/a	n/a	20950	9	50	18	1	0	n/a
68.4853	3.0	controlItem	Foil2	1.219	20950	9	50	19	1	2	controlFoil2
72.0015	3.5	controlItem	n/a	n/a	10903	9	3	20	1	1	n/a
75.4864	3.0	controlItem	n/a	n/a	20903	9	3	21	1	0	n/a
78.4848	3.0	controlItem	True	0.654	20903	9	3	22	1	2	controlTrue
82.0002	3.5	criticalItem	n/a	n/a	10941	9	41	23	1	1	n/a
85.4832	3.0	criticalItem	n/a	n/a	20941	9	41	24	1	0	n/a
88.4836	3.0	criticalItem	False	0.542	20941	9	41	25	1	2	criticalFalse
91.9998	3.5	controlItem	n/a	n/a	10947	9	47	26	1	1	n/a
95.4828	3.0	controlItem	n/a	n/a	30947	9	47	27	1	0	n/a
98.482	3.0	controlItem	Foil1	0.493	30947	9	47	28	1	3	controlFoil1
102.015	3.5	controlItem	n/a	n/a	10917	9	17	29	1	1	n/a
105.499	3.0	controlItem	n/a	n/a	30917	9	17	30	1	0	n/a
108.498	3.0	controlItem	Foil1	1.261	30917	9	17	31	1	3	controlFoil1
112.014	3.5	controlItem	n/a	n/a	10931	9	31	32	1	1	n/a
115.498	3.0	controlItem	n/a	n/a	70931	9	31	33	1	0	n/a
118.499	3.0	controlItem	True	0.496	70931	9	31	34	1	7	controlTrue
122.013	3.5	criticalItem	n/a	n/a	10919	9	19	35	1	1	n/a
125.496	3.0	criticalItem	n/a	n/a	70919	9	19	36	1	0	n/a
128.496	3.0	criticalItem	Foil	0.294	70919	9	19	37	1	7	criticalFoil
132.014	3.5	criticalItem	n/a	n/a	10922	9	22	38	1	1	n/a
135.495	3.0	criticalItem	n/a	n/a	20922	9	22	39	1	0	n/a
138.495	3.0	criticalItem	False	0.276	20922	9	22	40	1	2	criticalFalse
142.012	3.5	controlItem	n/a	n/a	10905	9	5	41	1	1	n/a
145.496	3.0	controlItem	n/a	n/a	30905	9	5	42	1	0	n/a
148.495	3.0	controlItem	Foil2	0.502	30905	9	5	43	1	3	controlFoil2
152.011	3.5	controlItem	n/a	n/a	10945	9	45	44	1	1	n/a
155.493	3.0	controlItem	n/a	n/a	20945	9	45	45	1	0	n/a
158.493	3.0	controlItem	Foil2	0.739	20945	9	45	46	1	2	controlFoil2
162.011	3.5	criticalItem	n/a	n/a	10904	9	4	47	1	1	n/a
165.493	3.0	criticalItem	n/a	n/a	40904	9	4	48	1	0	n/a
168.492	3.0	criticalItem	True	0.359	40904	9	4	49	1	4	criticalTrue
172.008	3.5	criticalItem	n/a	n/a	10910	9	10	50	1	1	n/a
175.492	3.0	criticalItem	n/a	n/a	20910	9	10	51	1	0	n/a
178.491	3.0	criticalItem	True	0.516	20910	9	10	52	1	2	criticalTrue
182.007	3.5	criticalItem	n/a	n/a	10935	9	35	53	1	1	n/a
185.491	3.0	criticalItem	n/a	n/a	70935	9	35	54	1	0	n/a
188.49	3.0	criticalItem	True	0.411	70935	9	35	55	1	7	criticalTrue
192.006	3.5	criticalItem	n/a	n/a	10924	9	24	56	1	1	n/a
195.49	3.0	criticalItem	n/a	n/a	40924	9	24	57	1	0	n/a
198.489	3.0	criticalItem	False	0.725	40924	9	24	58	1	4	criticalFalse
202.007	3.5	controlItem	n/a	n/a	10911	9	11	59	1	1	n/a
205.489	3.0	controlItem	n/a	n/a	60911	9	11	60	1	0	n/a
208.488	3.0	controlItem	Foil2	0.761	60911	9	11	61	1	6	controlFoil2
212.004	3.5	controlItem	n/a	n/a	10923	9	23	62	1	1	n/a
215.487	3.0	controlItem	n/a	n/a	60923	9	23	63	1	0	n/a
218.489	3.0	controlItem	Foil2	0.312	60923	9	23	64	1	6	controlFoil2
222.003	3.5	criticalItem	n/a	n/a	10926	9	26	65	1	1	n/a
225.486	3.0	criticalItem	n/a	n/a	70926	9	26	66	1	0	n/a
228.486	3.0	criticalItem	Foil	0.75	70926	9	26	67	1	7	criticalFoil
232.003	3.5	criticalItem	n/a	n/a	10949	9	49	68	1	1	n/a
235.485	3.0	criticalItem	ForbiddenKey	1.217	20949	9	49	69	1	0	n/a
238.486	3.0	criticalItem	True	0.399	20949	9	49	70	1	2	criticalTrue
242.002	3.5	criticalItem	n/a	n/a	10913	9	13	71	1	1	n/a
245.484	3.0	criticalItem	n/a	n/a	70913	9	13	72	1	0	n/a
248.484	3.0	criticalItem	True	0.572	70913	9	13	73	1	7	criticalTrue
252	n/a	n/a	n/a	n/a	90900	9	0	74	1	9	n/a
256	n/a	n/a	n/a	n/a	80500	5	0	75	1	8	n/a
266.015	3.5	controlItem	n/a	n/a	10518	5	18	76	1	1	n/a
269.499	3.0	controlItem	n/a	n/a	20518	5	18	77	1	0	n/a
272.499	3.0	controlItem	True	0.288	20518	5	18	78	1	2	controlTrue
276.014	3.5	criticalItem	n/a	n/a	10531	5	31	79	1	1	n/a
279.498	3.0	criticalItem	n/a	n/a	30531	5	31	80	1	0	n/a
282.497	3.0	criticalItem	True	0.389	30531	5	31	81	1	3	criticalTrue
286.013	3.5	controlItem	n/a	n/a	10542	5	42	82	1	1	n/a
289.497	3.0	controlItem	n/a	n/a	30542	5	42	83	1	0	n/a
292.496	3.0	controlItem	Foil2	0.902	30542	5	42	84	1	3	controlFoil2
296.014	3.5	criticalItem	n/a	n/a	10547	5	47	85	1	1	n/a
299.496	3.0	criticalItem	ForbiddenKey	1.894	30547	5	47	86	1	0	n/a
302.495	3.0	criticalItem	False	0.864	30547	5	47	87	1	3	criticalFalse
306.011	3.5	criticalItem	n/a	n/a	10503	5	3	88	1	1	n/a
309.495	3.0	criticalItem	n/a	n/a	40503	5	3	89	1	0	n/a
312.494	3.0	criticalItem	True	0.288	40503	5	3	90	1	4	criticalTrue
316.011	3.5	controlItem	n/a	n/a	10546	5	46	91	1	1	n/a
319.493	3.0	controlItem	n/a	n/a	60546	5	46	92	1	0	n/a
322.494	3.0	controlItem	Foil2	0.527	60546	5	46	93	1	6	controlFoil2
326.009	3.5	criticalItem	n/a	n/a	10519	5	19	94	1	1	n/a
329.493	3.0	criticalItem	n/a	n/a	70519	5	19	95	1	0	n/a
332.492	3.0	criticalItem	False	0.392	70519	5	19	96	1	7	criticalFalse
336.009	3.5	criticalItem	n/a	n/a	10550	5	50	97	1	1	n/a
339.492	3.0	criticalItem	n/a	n/a	40550	5	50	98	1	0	n/a
342.492	3.0	criticalItem	True	0.436	40550	5	50	99	1	4	criticalTrue
346.008	3.5	controlItem	n/a	n/a	10514	5	14	100	1	1	n/a
349.49	3.0	controlItem	n/a	n/a	30514	5	14	101	1	0	n/a
352.491	3.0	controlItem	True	0.257	30514	5	14	102	1	3	controlTrue
356.007	3.5	criticalItem	n/a	n/a	10526	5	26	103	1	1	n/a
359.489	3.0	criticalItem	n/a	n/a	60526	5	26	104	1	0	n/a
362.489	3.0	criticalItem	True	0.456	60526	5	26	105	1	6	criticalTrue
366.007	3.5	criticalItem	n/a	n/a	10521	5	21	106	1	1	n/a
369.489	3.0	criticalItem	n/a	n/a	50521	5	21	107	1	0	n/a
372.489	3.0	criticalItem	False	0.386	50521	5	21	108	1	5	criticalFalse
376.005	3.5	controlItem	n/a	n/a	10522	5	22	109	1	1	n/a
379.488	3.0	controlItem	n/a	n/a	20522	5	22	110	1	0	n/a
382.487	3.0	controlItem	Foil1	0.552	20522	5	22	111	1	2	controlFoil1
386.004	3.5	criticalItem	n/a	n/a	10516	5	16	112	1	1	n/a
389.487	3.0	criticalItem	n/a	n/a	70516	5	16	113	1	0	n/a
392.486	3.0	criticalItem	True	0.375	70516	5	16	114	1	7	criticalTrue
396.002	3.5	criticalItem	n/a	n/a	10541	5	41	115	1	1	n/a
399.486	3.0	criticalItem	n/a	n/a	40541	5	41	116	1	0	n/a
402.486	3.0	criticalItem	Foil	0.666	40541	5	41	117	1	4	criticalFoil
406.001	3.5	controlItem	n/a	n/a	10532	5	32	118	1	1	n/a
409.485	3.0	controlItem	n/a	n/a	40532	5	32	119	1	0	n/a
412.485	3.0	controlItem	True	1.022	40532	5	32	120	1	4	controlTrue
416	3.5	criticalItem	n/a	n/a	10539	5	39	121	1	1	n/a
419.484	3.0	criticalItem	n/a	n/a	20539	5	39	122	1	0	n/a
422.483	3.0	criticalItem	True	0.559	20539	5	39	123	1	2	criticalTrue
425.999	3.5	controlItem	n/a	n/a	10517	5	17	124	1	1	n/a
429.483	3.0	controlItem	n/a	n/a	70517	5	17	125	1	0	n/a
432.483	3.0	controlItem	Foil2	0.483	70517	5	17	126	1	7	controlFoil2
436.015	3.5	controlItem	n/a	n/a	10549	5	49	127	1	1	n/a
439.499	3.0	controlItem	n/a	n/a	70549	5	49	128	1	0	n/a
442.498	3.0	controlItem	Foil2	0.429	70549	5	49	129	1	7	controlFoil2
446.014	3.5	controlItem	n/a	n/a	10525	5	25	130	1	1	n/a
449.499	3.0	controlItem	n/a	n/a	30525	5	25	131	1	0	n/a
452.497	3.0	controlItem	True	0.358	30525	5	25	132	1	3	controlTrue
456.014	3.5	controlItem	n/a	n/a	10515	5	15	133	1	1	n/a
459.497	3.0	controlItem	n/a	n/a	70515	5	15	134	1	0	n/a
462.496	3.0	controlItem	Foil2	0.626	70515	5	15	135	1	7	controlFoil2
466.012	3.5	controlItem	n/a	n/a	10527	5	27	136	1	1	n/a
469.496	3.0	controlItem	n/a	n/a	40527	5	27	137	1	0	n/a
472.497	3.0	controlItem	True	0.944	40527	5	27	138	1	4	controlTrue
476.011	3.5	criticalItem	n/a	n/a	10505	5	5	139	1	1	n/a
479.495	3.0	criticalItem	n/a	n/a	30505	5	5	140	1	0	n/a
482.495	3.0	criticalItem	Foil	0.518	30505	5	5	141	1	3	criticalFoil
486.011	3.5	controlItem	n/a	n/a	10524	5	24	142	1	1	n/a
489.494	3.0	controlItem	n/a	n/a	50524	5	24	143	1	0	n/a
492.493	3.0	controlItem	True	0.766	50524	5	24	144	1	5	controlTrue
496.01	3.5	criticalItem	n/a	n/a	10523	5	23	145	1	1	n/a
499.493	3.0	criticalItem	n/a	n/a	50523	5	23	146	1	0	n/a
502.493	3.0	criticalItem	False	0.397	50523	5	23	147	1	5	criticalFalse
506.009	n/a	n/a	n/a	n/a	90500	5	0	148	1	9	n/a
