onset	duration	trial_type	response	response_time	stim_id	stim_events	stim_slides	trial_id	run_id	stim_type	response_type
2.00802	n/a	n/a	n/a	n/a	80900	9	0	149	2	8	n/a
12.007	3.5	controlItem	n/a	n/a	10911	9	11	150	2	1	n/a
15.4905	3.0	controlItem	n/a	n/a	20911	9	11	151	2	0	n/a
18.4903	3.0	controlItem	True	0.947	20911	9	11	152	2	2	controlTrue
22.0059	3.5	criticalItem	n/a	n/a	10935	9	35	153	2	1	n/a
25.4893	3.0	criticalItem	n/a	n/a	40935	9	35	154	2	0	n/a
28.4887	3.0	criticalItem	Foil	0.723	40935	9	35	155	2	4	criticalFoil
32.0057	3.5	controlItem	n/a	n/a	10905	9	5	156	2	1	n/a
35.4893	3.0	controlItem	n/a	n/a	30905	9	5	157	2	0	n/a
38.4873	3.0	controlItem	Foil1	0.757	30905	9	5	158	2	3	controlFoil1
42.0031	3.5	controlItem	n/a	n/a	10947	9	47	159	2	1	n/a
45.4867	3.0	controlItem	n/a	n/a	70947	9	47	160	2	0	n/a
48.4867	3.0	controlItem	Foil1	0.606	70947	9	47	161	2	7	controlFoil1
52.0034	3.5	criticalItem	n/a	n/a	10919	9	19	162	2	1	n/a
55.4869	3.0	criticalItem	n/a	n/a	60919	9	19	163	2	0	n/a
58.4864	3.0	criticalItem	True	1.137	60919	9	19	164	2	6	criticalTrue
62.0025	3.5	controlItem	n/a	n/a	10931	9	31	165	2	1	n/a
65.4854	3.0	controlItem	n/a	n/a	50931	9	31	166	2	0	n/a
68.4851	3.0	controlItem	Foil1	0.548	50931	9	31	167	2	5	controlFoil1
72.0006	3.5	criticalItem	n/a	n/a	10904	9	4	168	2	1	n/a
75.484	3.0	criticalItem	n/a	n/a	20904	9	4	169	2	0	n/a
78.4834	3.0	criticalItem	False	0.62	20904	9	4	170	2	2	criticalFalse
82.0003	3.5	criticalItem	n/a	n/a	10926	9	26	171	2	1	n/a
85.4826	3.0	criticalItem	n/a	n/a	60926	9	26	172	2	0	n/a
88.4831	3.0	criticalItem	False	0.875	60926	9	26	173	2	6	criticalFalse
91.9993	3.5	controlItem	n/a	n/a	10945	9	45	174	2	1	n/a
95.4821	3.0	controlItem	n/a	n/a	50945	9	45	175	2	0	n/a
98.4821	3.0	controlItem	True	1.026	50945	9	45	176	2	5	controlTrue
102.015	3.5	criticalItem	n/a	n/a	10924	9	24	177	2	1	n/a
105.498	3.0	criticalItem	n/a	n/a	30924	9	24	178	2	0	n/a
108.498	3.0	criticalItem	True	1.099	30924	9	24	179	2	3	criticalTrue
112.013	3.5	controlItem	n/a	n/a	10915	9	15	180	2	1	n/a
115.497	3.0	controlItem	n/a	n/a	50915	9	15	181	2	0	n/a
118.497	3.0	controlItem	True	0.653	50915	9	15	182	2	5	controlTrue
122.012	3.5	criticalItem	n/a	n/a	10908	9	8	183	2	1	n/a
125.496	3.0	criticalItem	n/a	n/a	50908	9	8	184	2	0	n/a
128.495	3.0	criticalItem	Foil	0.678	50908	9	8	185	2	5	criticalFoil
132.012	3.5	criticalItem	n/a	n/a	10913	9	13	186	2	1	n/a
135.495	3.0	criticalItem	n/a	n/a	50913	9	13	187	2	0	n/a
138.495	3.0	criticalItem	False	0.44	50913	9	13	188	2	5	criticalFalse
142.011	3.5	controlItem	n/a	n/a	10923	9	23	189	2	1	n/a
145.494	3.0	controlItem	n/a	n/a	60923	9	23	190	2	0	n/a
148.494	3.0	controlItem	True	0.415	60923	9	23	191	2	6	controlTrue
152.009	3.5	controlItem	n/a	n/a	10943	9	43	192	2	1	n/a
155.493	3.0	controlItem	n/a	n/a	60943	9	43	193	2	0	n/a
158.492	3.0	controlItem	True	0.49	60943	9	43	194	2	6	controlTrue
162.009	3.5	controlItem	n/a	n/a	10950	9	50	195	2	1	n/a
165.493	3.0	controlItem	n/a	n/a	70950	9	50	196	2	0	n/a
168.492	3.0	controlItem	Foil1	0.767	70950	9	50	197	2	7	controlFoil1
172.008	3.5	criticalItem	n/a	n/a	10941	9	41	198	2	1	n/a
175.491	3.0	criticalItem	n/a	n/a	30941	9	41	199	2	0	n/a
178.49	3.0	criticalItem	False	0.435	30941	9	41	200	2	3	criticalFalse
182.006	3.5	controlItem	n/a	n/a	10909	9	9	201	2	1	n/a
185.49	3.0	controlItem	n/a	n/a	50909	9	9	202	2	0	n/a
188.489	3.0	controlItem	Foil2	0.544	50909	9	9	203	2	5	controlFoil2
192.005	3.5	controlItem	n/a	n/a	10903	9	3	204	2	1	n/a
195.489	3.0	controlItem	n/a	n/a	70903	9	3	205	2	0	n/a
198.488	3.0	controlItem	True	0.485	70903	9	3	206	2	7	controlTrue
202.004	3.5	criticalItem	n/a	n/a	10928	9	28	207	2	1	n/a
205.488	3.0	criticalItem	n/a	n/a	40928	9	28	208	2	0	n/a
208.488	3.0	criticalItem	False	0.432	40928	9	28	209	2	4	criticalFalse
212.003	3.5	controlItem	n/a	n/a	10917	9	17	210	2	1	n/a
215.486	3.0	controlItem	n/a	n/a	60917	9	17	211	2	0	n/a
218.486	3.0	controlItem	Foil1	0.539	60917	9	17	212	2	6	controlFoil1
222.003	3.5	criticalItem	n/a	n/a	10922	9	22	213	2	1	n/a
225.486	3.0	criticalItem	n/a	n/a	60922	9	22	214	2	0	n/a
228.485	3.0	criticalItem	True	0.387	60922	9	22	215	2	6	criticalTrue
232.002	3.5	criticalItem	n/a	n/a	10949	9	49	216	2	1	n/a
235.486	3.0	criticalItem	n/a	n/a	30949	9	49	217	2	0	n/a
238.485	3.0	criticalItem	False	0.439	30949	9	49	218	2	3	criticalFalse
242.001	3.5	criticalItem	n/a	n/a	10910	9	10	219	2	1	n/a
245.485	3.0	criticalItem	n/a	n/a	70910	9	10	220	2	0	n/a
248.484	3.0	criticalItem	True	0.565	70910	9	10	221	2	7	criticalTrue
252	n/a	n/a	n/a	n/a	90900	9	0	222	2	9	n/a
256	n/a	n/a	n/a	n/a	80200	2	0	223	2	8	n/a
266.015	3.5	criticalItem	n/a	n/a	10231	2	31	224	2	1	n/a
269.498	3.0	criticalItem	n/a	n/a	20231	2	31	225	2	0	n/a
272.497	3.0	criticalItem	False	1.142	20231	2	31	226	2	2	criticalFalse
276.014	3.5	controlItem	n/a	n/a	10248	2	48	227	2	1	n/a
279.497	3.0	controlItem	n/a	n/a	60248	2	48	228	2	0	n/a
282.497	3.0	controlItem	Foil2	0.326	60248	2	48	229	2	6	controlFoil2
286.013	3.5	controlItem	n/a	n/a	10205	2	5	230	2	1	n/a
289.495	3.0	controlItem	n/a	n/a	40205	2	5	231	2	0	n/a
292.496	3.0	controlItem	Foil1	0.377	40205	2	5	232	2	4	controlFoil1
296.011	3.5	controlItem	n/a	n/a	10222	2	22	233	2	1	n/a
299.495	3.0	controlItem	n/a	n/a	60222	2	22	234	2	0	n/a
302.494	3.0	controlItem	Foil2	0.541	60222	2	22	235	2	6	controlFoil2
306.011	3.5	criticalItem	n/a	n/a	10228	2	28	236	2	1	n/a
309.494	3.0	criticalItem	n/a	n/a	40228	2	28	237	2	0	n/a
312.494	3.0	criticalItem	False	0.728	40228	2	28	238	2	4	criticalFalse
316.009	3.5	controlItem	n/a	n/a	10242	2	42	239	2	1	n/a
319.493	3.0	controlItem	n/a	n/a	60242	2	42	240	2	0	n/a
322.492	3.0	controlItem	Foil2	0.694	60242	2	42	241	2	6	controlFoil2
326.009	3.5	controlItem	n/a	n/a	10230	2	30	242	2	1	n/a
329.491	3.0	controlItem	n/a	n/a	50230	2	30	243	2	0	n/a
332.491	3.0	controlItem	True	0.55	50230	2	30	244	2	5	controlTrue
336.008	3.5	criticalItem	n/a	n/a	10238	2	38	245	2	1	n/a
339.491	3.0	criticalItem	n/a	n/a	40238	2	38	246	2	0	n/a
342.491	3.0	criticalItem	True	0.455	40238	2	38	247	2	4	criticalTrue
346.007	3.5	criticalItem	n/a	n/a	10223	2	23	248	2	1	n/a
349.49	3.0	criticalItem	n/a	n/a	30223	2	23	249	2	0	n/a
352.49	3.0	criticalItem	True	0.651	30223	2	23	250	2	3	criticalTrue
356.005	3.5	criticalItem	n/a	n/a	10225	2	25	251	2	1	n/a
359.488	3.0	criticalItem	n/a	n/a	50225	2	25	252	2	0	n/a
362.489	3.0	criticalItem	Foil	0.402	50225	2	25	253	2	5	criticalFoil
366.004	3.5	controlItem	n/a	n/a	10235	2	35	254	2	1	n/a
369.487	3.0	controlItem	n/a	n/a	70235	2	35	255	2	0	n/a
372.488	3.0	controlItem	Foil2	0.457	70235	2	35	256	2	7	controlFoil2
376.004	3.5	controlItem	n/a	n/a	10204	2	4	257	2	1	n/a
379.486	3.0	controlItem	n/a	n/a	60204	2	4	258	2	0	n/a
382.486	3.0	controlItem	True	0.657	60204	2	4	259	2	6	controlTrue
386.003	3.5	criticalItem	n/a	n/a	10234	2	34	260	2	1	n/a
389.487	3.0	criticalItem	n/a	n/a	50234	2	34	261	2	0	n/a
392.486	3.0	criticalItem	False	0.627	50234	2	34	262	2	5	criticalFalse
396.002	3.5	controlItem	n/a	n/a	10207	2	7	263	2	1	n/a
399.485	3.0	controlItem	n/a	n/a	40207	2	7	264	2	0	n/a
402.485	3.0	controlItem	True	0.681	40207	2	7	265	2	4	controlTrue
406	3.5	controlItem	n/a	n/a	10237	2	37	266	2	1	n/a
409.485	3.0	controlItem	n/a	n/a	50237	2	37	267	2	0	n/a
412.483	3.0	controlItem	Foil2	1.024	50237	2	37	268	2	5	controlFoil2
416	3.5	criticalItem	n/a	n/a	10214	2	14	269	2	1	n/a
419.484	3.0	criticalItem	n/a	n/a	50214	2	14	270	2	0	n/a
422.482	3.0	criticalItem	True	0.918	50214	2	14	271	2	5	criticalTrue
426.015	3.5	controlItem	n/a	n/a	10217	2	17	272	2	1	n/a
429.498	3.0	controlItem	n/a	n/a	50217	2	17	273	2	0	n/a
432.498	3.0	controlItem	Foil1	0.642	50217	2	17	274	2	5	controlFoil1
436.015	3.5	controlItem	n/a	n/a	10232	2	32	275	2	1	n/a
439.499	3.0	controlItem	n/a	n/a	60232	2	32	276	2	0	n/a
442.497	3.0	controlItem	True	0.518	60232	2	32	277	2	6	controlTrue
446.013	3.5	criticalItem	n/a	n/a	10245	2	45	278	2	1	n/a
449.496	3.0	criticalItem	n/a	n/a	20245	2	45	279	2	0	n/a
452.496	3.0	criticalItem	Foil	0.483	20245	2	45	280	2	2	criticalFoil
456.012	3.5	controlItem	n/a	n/a	10246	2	46	281	2	1	n/a
459.495	3.0	controlItem	n/a	n/a	70246	2	46	282	2	0	n/a
462.495	3.0	controlItem	True	0.461	70246	2	46	283	2	7	controlTrue
466.012	3.5	criticalItem	n/a	n/a	10236	2	36	284	2	1	n/a
469.494	3.0	criticalItem	n/a	n/a	60236	2	36	285	2	0	n/a
472.494	3.0	criticalItem	Foil	0.774	60236	2	36	286	2	6	criticalFoil
476.01	3.5	criticalItem	n/a	n/a	10249	2	49	287	2	1	n/a
479.493	3.0	criticalItem	n/a	n/a	30249	2	49	288	2	0	n/a
482.492	3.0	criticalItem	Foil	0.519	30249	2	49	289	2	3	criticalFoil
486.009	3.5	criticalItem	n/a	n/a	10219	2	19	290	2	1	n/a
489.494	3.0	criticalItem	n/a	n/a	70219	2	19	291	2	0	n/a
492.492	3.0	criticalItem	Foil	0.554	70219	2	19	292	2	7	criticalFoil
496.009	3.5	criticalItem	n/a	n/a	10241	2	41	293	2	1	n/a
499.49	3.0	criticalItem	n/a	n/a	70241	2	41	294	2	0	n/a
502.491	3.0	criticalItem	True	0.534	70241	2	41	295	2	7	criticalTrue
506.007	n/a	n/a	n/a	n/a	90200	2	0	296	2	9	n/a
