onset	duration	trial_type	response	response_time	stim_id	stim_events	stim_slides	trial_id	run_id	stim_type	response_type
2.00865	n/a	n/a	n/a	n/a	80300	3	0	1	1	8	n/a
12.0082	3.5	controlItem	n/a	n/a	10320	3	20	2	1	1	n/a
15.4918	3.0	controlItem	n/a	n/a	20320	3	20	3	1	0	n/a
18.4904	3.0	controlItem	True	0.751	20320	3	20	4	1	2	controlTrue
22.0062	3.5	controlItem	n/a	n/a	10309	3	9	5	1	1	n/a
25.4893	3.0	controlItem	n/a	n/a	60309	3	9	6	1	0	n/a
28.4896	3.0	controlItem	True	0.684	60309	3	9	7	1	6	controlTrue
32.0058	3.5	criticalItem	n/a	n/a	10341	3	41	8	1	1	n/a
35.4887	3.0	criticalItem	n/a	n/a	50341	3	41	9	1	0	n/a
38.4884	3.0	criticalItem	False	0.74	50341	3	41	10	1	5	criticalFalse
42.0047	3.5	criticalItem	n/a	n/a	10330	3	30	11	1	1	n/a
45.4888	3.0	criticalItem	n/a	n/a	30330	3	30	12	1	0	n/a
48.4885	3.0	criticalItem	False	0.757	30330	3	30	13	1	3	criticalFalse
52.0038	3.5	criticalItem	n/a	n/a	10322	3	22	14	1	1	n/a
55.4879	3.0	criticalItem	n/a	n/a	30322	3	22	15	1	0	n/a
58.4876	3.0	criticalItem	False	0.765	30322	3	22	16	1	3	criticalFalse
62.0022	3.5	controlItem	n/a	n/a	10329	3	29	17	1	1	n/a
65.4865	3.0	controlItem	n/a	n/a	20329	3	29	18	1	0	n/a
68.4865	3.0	controlItem	Foil2	0.872	20329	3	29	19	1	2	controlFoil2
72.0023	3.5	controlItem	n/a	n/a	10350	3	50	20	1	1	n/a
75.4849	3.0	controlItem	n/a	n/a	50350	3	50	21	1	0	n/a
78.4854	3.0	controlItem	True	0.675	50350	3	50	22	1	5	controlTrue
82.0005	3.5	controlItem	n/a	n/a	10317	3	17	23	1	1	n/a
85.4832	3.0	controlItem	n/a	n/a	20317	3	17	24	1	0	n/a
88.4835	3.0	controlItem	Foil1	1.135	20317	3	17	25	1	2	controlFoil1
91.9998	3.5	controlItem	n/a	n/a	10345	3	45	26	1	1	n/a
95.4839	3.0	controlItem	n/a	n/a	20345	3	45	27	1	0	n/a
98.4838	3.0	controlItem	True	0.575	20345	3	45	28	1	2	controlTrue
101.999	3.5	criticalItem	n/a	n/a	10316	3	16	29	1	1	n/a
105.482	3.0	criticalItem	n/a	n/a	40316	3	16	30	1	0	n/a
108.481	3.0	criticalItem	True	0.866	40316	3	16	31	1	4	criticalTrue
112.014	3.5	criticalItem	n/a	n/a	10336	3	36	32	1	1	n/a
115.499	3.0	criticalItem	n/a	n/a	50336	3	36	33	1	0	n/a
118.497	3.0	criticalItem	False	0.4	50336	3	36	34	1	5	criticalFalse
122.013	3.5	criticalItem	n/a	n/a	10347	3	47	35	1	1	n/a
125.498	3.0	criticalItem	n/a	n/a	60347	3	47	36	1	0	n/a
128.497	3.0	criticalItem	True	0.829	60347	3	47	37	1	6	criticalTrue
132.013	3.5	controlItem	n/a	n/a	10331	3	31	38	1	1	n/a
135.497	3.0	controlItem	n/a	n/a	70331	3	31	39	1	0	n/a
138.496	3.0	controlItem	True	0.642	70331	3	31	40	1	7	controlTrue
142.011	3.5	controlItem	n/a	n/a	10348	3	48	41	1	1	n/a
145.496	3.0	controlItem	n/a	n/a	30348	3	48	42	1	0	n/a
148.494	3.0	controlItem	True	0.696	30348	3	48	43	1	3	controlTrue
152.01	3.5	controlItem	n/a	n/a	10325	3	25	44	1	1	n/a
155.495	3.0	controlItem	n/a	n/a	60325	3	25	45	1	0	n/a
158.494	3.0	controlItem	True	0.658	60325	3	25	46	1	6	controlTrue
162.009	3.5	criticalItem	n/a	n/a	10324	3	24	47	1	1	n/a
165.493	3.0	criticalItem	n/a	n/a	30324	3	24	48	1	0	n/a
168.494	3.0	criticalItem	Foil	0.994	30324	3	24	49	1	3	criticalFoil
172.008	3.5	criticalItem	n/a	n/a	10332	3	32	50	1	1	n/a
175.493	3.0	criticalItem	n/a	n/a	20332	3	32	51	1	0	n/a
178.492	3.0	criticalItem	True	0.805	20332	3	32	52	1	2	criticalTrue
182.007	3.5	criticalItem	n/a	n/a	10327	3	27	53	1	1	n/a
185.492	3.0	criticalItem	n/a	n/a	70327	3	27	54	1	0	n/a
188.49	3.0	criticalItem	False	0.611	70327	3	27	55	1	7	criticalFalse
192.007	3.5	controlItem	n/a	n/a	10342	3	42	56	1	1	n/a
195.491	3.0	controlItem	n/a	n/a	70342	3	42	57	1	0	n/a
198.489	3.0	controlItem	Foil1	0.52	70342	3	42	58	1	7	controlFoil1
202.005	3.5	criticalItem	n/a	n/a	10319	3	19	59	1	1	n/a
205.49	3.0	criticalItem	n/a	n/a	40319	3	19	60	1	0	n/a
208.488	3.0	criticalItem	True	1.042	40319	3	19	61	1	4	criticalTrue
212.005	3.5	criticalItem	n/a	n/a	10305	3	5	62	1	1	n/a
215.488	3.0	criticalItem	n/a	n/a	60305	3	5	63	1	0	n/a
218.487	3.0	criticalItem	False	0.491	60305	3	5	64	1	6	criticalFalse
222.003	3.5	controlItem	n/a	n/a	10313	3	13	65	1	1	n/a
225.488	3.0	controlItem	n/a	n/a	20313	3	13	66	1	0	n/a
228.487	3.0	controlItem	True	0.515	20313	3	13	67	1	2	controlTrue
232.002	3.5	criticalItem	n/a	n/a	10344	3	44	68	1	1	n/a
235.487	3.0	criticalItem	n/a	n/a	50344	3	44	69	1	0	n/a
238.486	3.0	criticalItem	Foil	0.853	50344	3	44	70	1	5	criticalFoil
242.001	3.5	controlItem	n/a	n/a	10303	3	3	71	1	1	n/a
245.486	3.0	controlItem	n/a	n/a	60303	3	3	72	1	0	n/a
248.486	3.0	controlItem	Foil2	0.482	60303	3	3	73	1	6	controlFoil2
252.001	n/a	n/a	n/a	n/a	90300	3	0	74	1	9	n/a
256	n/a	n/a	n/a	n/a	80400	4	0	75	1	8	n/a
265.999	3.5	controlItem	n/a	n/a	10444	4	44	76	1	1	n/a
269.483	3.0	controlItem	n/a	n/a	30444	4	44	77	1	0	n/a
272.482	3.0	controlItem	True	0.449	30444	4	44	78	1	3	controlTrue
276.015	3.5	criticalItem	n/a	n/a	10429	4	29	79	1	1	n/a
279.499	3.0	criticalItem	n/a	n/a	60429	4	29	80	1	0	n/a
282.499	3.0	criticalItem	False	0.471	60429	4	29	81	1	6	criticalFalse
286.014	3.5	criticalItem	n/a	n/a	10407	4	7	82	1	1	n/a
289.497	3.0	criticalItem	n/a	n/a	70407	4	7	83	1	0	n/a
292.498	3.0	criticalItem	False	1.097	70407	4	7	84	1	7	criticalFalse
296.013	3.5	controlItem	n/a	n/a	10446	4	46	85	1	1	n/a
299.497	3.0	controlItem	n/a	n/a	40446	4	46	86	1	0	n/a
302.495	3.0	controlItem	True	0.479	40446	4	46	87	1	4	controlTrue
306.012	3.5	controlItem	n/a	n/a	10412	4	12	88	1	1	n/a
309.496	3.0	controlItem	n/a	n/a	70412	4	12	89	1	0	n/a
312.496	3.0	controlItem	True	0.543	70412	4	12	90	1	7	controlTrue
316.011	3.5	criticalItem	n/a	n/a	10419	4	19	91	1	1	n/a
319.495	3.0	criticalItem	ForbiddenKey	2.105	70419	4	19	92	1	0	n/a
322.495	3.0	criticalItem	False	1.249	70419	4	19	93	1	7	criticalFalse
326.01	3.5	controlItem	n/a	n/a	10442	4	42	94	1	1	n/a
329.494	3.0	controlItem	n/a	n/a	30442	4	42	95	1	0	n/a
332.494	3.0	controlItem	True	0.898	30442	4	42	96	1	3	controlTrue
336.009	3.5	criticalItem	n/a	n/a	10415	4	15	97	1	1	n/a
339.492	3.0	criticalItem	n/a	n/a	20415	4	15	98	1	0	n/a
342.492	3.0	criticalItem	False	0.738	20415	4	15	99	1	2	criticalFalse
346.008	3.5	controlItem	n/a	n/a	10416	4	16	100	1	1	n/a
349.492	3.0	controlItem	n/a	n/a	50416	4	16	101	1	0	n/a
352.49	3.0	controlItem	Foil1	0.608	50416	4	16	102	1	5	controlFoil1
356.007	3.5	controlItem	n/a	n/a	10409	4	9	103	1	1	n/a
359.489	3.0	controlItem	n/a	n/a	50409	4	9	104	1	0	n/a
362.491	3.0	controlItem	True	0.993	50409	4	9	105	1	5	controlTrue
366.008	3.5	criticalItem	n/a	n/a	10404	4	4	106	1	1	n/a
369.489	3.0	criticalItem	n/a	n/a	70404	4	4	107	1	0	n/a
372.488	3.0	criticalItem	False	0.548	70404	4	4	108	1	7	criticalFalse
376.004	3.5	criticalItem	n/a	n/a	10436	4	36	109	1	1	n/a
379.489	3.0	criticalItem	n/a	n/a	40436	4	36	110	1	0	n/a
382.489	3.0	criticalItem	False	0.677	40436	4	36	111	1	4	criticalFalse
386.004	3.5	criticalItem	n/a	n/a	10424	4	24	112	1	1	n/a
389.488	3.0	criticalItem	n/a	n/a	30424	4	24	113	1	0	n/a
392.487	3.0	criticalItem	True	0.586	30424	4	24	114	1	3	criticalTrue
396.003	3.5	controlItem	n/a	n/a	10422	4	22	115	1	1	n/a
399.486	3.0	controlItem	n/a	n/a	30422	4	22	116	1	0	n/a
402.487	3.0	controlItem	Foil2	0.641	30422	4	22	117	1	3	controlFoil2
406.002	3.5	controlItem	n/a	n/a	10448	4	48	118	1	1	n/a
409.486	3.0	controlItem	n/a	n/a	50448	4	48	119	1	0	n/a
412.485	3.0	controlItem	Foil1	0.762	50448	4	48	120	1	5	controlFoil1
416.001	3.5	controlItem	n/a	n/a	10425	4	25	121	1	1	n/a
419.484	3.0	controlItem	n/a	n/a	70425	4	25	122	1	0	n/a
422.485	3.0	controlItem	True	1.98	70425	4	25	123	1	7	controlTrue
426	3.5	criticalItem	n/a	n/a	10449	4	49	124	1	1	n/a
429.484	3.0	criticalItem	n/a	n/a	20449	4	49	125	1	0	n/a
432.484	3.0	criticalItem	True	0.51	20449	4	49	126	1	2	criticalTrue
436.015	3.5	criticalItem	n/a	n/a	10411	4	11	127	1	1	n/a
439.499	3.0	criticalItem	n/a	n/a	40411	4	11	128	1	0	n/a
442.499	3.0	criticalItem	Foil	0.555	40411	4	11	129	1	4	criticalFoil
446.014	3.5	controlItem	n/a	n/a	10443	4	43	130	1	1	n/a
449.498	3.0	controlItem	n/a	n/a	40443	4	43	131	1	0	n/a
452.499	3.0	controlItem	True	0.436	40443	4	43	132	1	4	controlTrue
456.014	3.5	controlItem	n/a	n/a	10430	4	30	133	1	1	n/a
459.497	3.0	controlItem	n/a	n/a	70430	4	30	134	1	0	n/a
462.496	3.0	controlItem	True	0.451	70430	4	30	135	1	7	controlTrue
466.013	3.5	controlItem	n/a	n/a	10450	4	50	136	1	1	n/a
469.496	3.0	controlItem	n/a	n/a	60450	4	50	137	1	0	n/a
472.495	3.0	controlItem	True	0.446	60450	4	50	138	1	6	controlTrue
476.012	3.5	criticalItem	n/a	n/a	10438	4	38	139	1	1	n/a
479.496	3.0	criticalItem	n/a	n/a	40438	4	38	140	1	0	n/a
482.494	3.0	criticalItem	Foil	0.695	40438	4	38	141	1	4	criticalFoil
486.01	3.5	criticalItem	n/a	n/a	10417	4	17	142	1	1	n/a
489.494	3.0	criticalItem	n/a	n/a	70417	4	17	143	1	0	n/a
492.494	3.0	criticalItem	True	0.599	70417	4	17	144	1	7	criticalTrue
496.01	3.5	criticalItem	n/a	n/a	10440	4	40	145	1	1	n/a
499.493	3.0	criticalItem	n/a	n/a	60440	4	40	146	1	0	n/a
502.494	3.0	criticalItem	True	0.969	60440	4	40	147	1	6	criticalTrue
506.009	n/a	n/a	n/a	n/a	90400	4	0	148	1	9	n/a
