onset	duration	trial_type	response	response_time	stim_id	stim_version	stim_events	stim_slides	trial_id	run_id	stim_redcross	subsequent_response_type
2.0269	n/a	n/a	n/a	n/a	80700	8	7	0	1	1	n/a	n/a
6.0222	3.5	genericItem	n/a	n/a	10701	1	7	1	2	1	n/a	n/a
10.021	3.5	genericItem	n/a	n/a	10702	1	7	2	3	1	n/a	n/a
14.0209	3.5	controlItem	n/a	n/a	10703	1	7	3	4	1	n/a	controlTrue
18.0216	3.5	criticalItem	n/a	n/a	20704	2	7	4	5	1	n/a	criticalFalse
22.021	3.5	controlItem	n/a	n/a	10705	1	7	5	6	1	n/a	controlTrue
26.0205	3.5	genericItem	n/a	n/a	10706	1	7	6	7	1	n/a	n/a
30.0209	3.5	controlItem	n/a	n/a	10707	1	7	7	8	1	n/a	controlTrue
34.0208	3.5	controlItem	n/a	n/a	10708	1	7	8	9	1	n/a	controlFoil1
38.0207	3.5	criticalItem	n/a	n/a	20709	2	7	9	10	1	n/a	criticalFalse
42.0201	3.5	genericItem	n/a	n/a	10710	1	7	10	11	1	n/a	n/a
46.021	3.5	controlItem	n/a	n/a	10711	1	7	11	12	1	n/a	controlTrue
50.0212	3.5	criticalItem	n/a	n/a	20712	2	7	12	13	1	n/a	criticalTrue
54.0204	3.5	genericItem	n/a	n/a	10713	1	7	13	14	1	n/a	n/a
58.0208	3.5	controlItem	n/a	n/a	10714	1	7	14	15	1	n/a	controlTrue
62.0206	3.5	genericItem	n/a	n/a	10715	1	7	15	16	1	n/a	n/a
66.0204	3.5	genericItem	n/a	n/a	10716	1	7	16	17	1	n/a	n/a
70.0206	3.5	genericItem	n/a	n/a	10717	1	7	17	18	1	n/a	n/a
74.0212	3.5	controlItem	n/a	n/a	10718	1	7	18	19	1	n/a	controlFoil1
78.02	3.5	criticalItem	n/a	n/a	20719	2	7	19	20	1	n/a	criticalFalse
82.0197	3.5	controlItem	n/a	n/a	10720	1	7	20	21	1	n/a	controlTrue
86.0215	3.5	criticalItem	n/a	n/a	20721	2	7	21	22	1	n/a	criticalFoil
90.0207	3.5	genericItem	1	1.061	10722	1	7	22	23	1	1	n/a
94.0206	3.5	genericItem	n/a	n/a	10723	1	7	23	24	1	n/a	n/a
98.0214	3.5	genericItem	n/a	n/a	10724	1	7	24	25	1	n/a	n/a
102.02	3.5	genericItem	n/a	n/a	10725	1	7	25	26	1	n/a	n/a
106.02	3.5	criticalItem	n/a	n/a	20726	2	7	26	27	1	n/a	criticalFalse
110.021	3.5	genericItem	n/a	n/a	10727	1	7	27	28	1	n/a	n/a
114.02	3.5	controlItem	n/a	n/a	10728	1	7	28	29	1	n/a	controlTrue
118.021	3.5	criticalItem	n/a	n/a	20729	2	7	29	30	1	n/a	criticalTrue
122.02	3.5	genericItem	1	0.962	10730	1	7	30	31	1	1	n/a
126.021	3.5	genericItem	n/a	n/a	10731	1	7	31	32	1	n/a	n/a
130.021	3.5	genericItem	n/a	n/a	10732	1	7	32	33	1	n/a	n/a
134.02	3.5	genericItem	n/a	n/a	10733	1	7	33	34	1	n/a	n/a
138.021	3.5	controlItem	n/a	n/a	10734	1	7	34	35	1	n/a	controlTrue
142.021	3.5	criticalItem	n/a	n/a	20735	2	7	35	36	1	n/a	criticalFoil
146.02	3.5	genericItem	n/a	n/a	10736	1	7	36	37	1	n/a	n/a
150.022	3.5	genericItem	1	0.785	10737	1	7	37	38	1	1	n/a
154.021	3.5	genericItem	n/a	n/a	10738	1	7	38	39	1	n/a	n/a
158.02	3.5	criticalItem	n/a	n/a	20739	2	7	39	40	1	n/a	criticalFalse
162.021	3.5	controlItem	n/a	n/a	10740	1	7	40	41	1	n/a	controlTrue
166.02	3.5	genericItem	n/a	n/a	10741	1	7	41	42	1	n/a	n/a
170.021	3.5	genericItem	n/a	n/a	10742	1	7	42	43	1	n/a	n/a
174.021	3.5	genericItem	n/a	n/a	10743	1	7	43	44	1	n/a	n/a
178.02	3.5	criticalItem	n/a	n/a	20744	2	7	44	45	1	n/a	criticalFalse
182.021	3.5	genericItem	1	0.806	10745	1	7	45	46	1	1	n/a
186.021	3.5	criticalItem	n/a	n/a	20746	2	7	46	47	1	n/a	criticalTrue
190.02	3.5	genericItem	n/a	n/a	10747	1	7	47	48	1	n/a	n/a
194.021	3.5	genericItem	n/a	n/a	10748	1	7	48	49	1	n/a	n/a
198.021	3.5	criticalItem	n/a	n/a	20749	2	7	49	50	1	n/a	criticalFalse
202.02	3.5	controlItem	n/a	n/a	10750	1	7	50	51	1	n/a	controlTrue
206.02	n/a	n/a	n/a	n/a	90700	9	7	0	52	1	n/a	n/a
210.022	n/a	n/a	n/a	n/a	80500	8	5	0	53	1	n/a	n/a
214.02	3.5	genericItem	n/a	n/a	10501	1	5	1	54	1	n/a	n/a
218.02	3.5	genericItem	n/a	n/a	10502	1	5	2	55	1	n/a	n/a
222.022	3.5	criticalItem	n/a	n/a	20503	2	5	3	56	1	n/a	criticalFalse
226.019	3.5	genericItem	n/a	n/a	10504	1	5	4	57	1	n/a	n/a
230.02	3.5	criticalItem	n/a	n/a	20505	2	5	5	58	1	n/a	criticalFalse
234.021	3.5	genericItem	n/a	n/a	10506	1	5	6	59	1	n/a	n/a
238.021	3.5	genericItem	n/a	n/a	10507	1	5	7	60	1	n/a	n/a
242.021	3.5	genericItem	n/a	n/a	10508	1	5	8	61	1	n/a	n/a
246.021	3.5	genericItem	n/a	n/a	10509	1	5	9	62	1	n/a	n/a
250.021	3.5	genericItem	1	0.88	10510	1	5	10	63	1	1	n/a
254.021	3.5	genericItem	n/a	n/a	10511	1	5	11	64	1	n/a	n/a
258.021	3.5	genericItem	n/a	n/a	10512	1	5	12	65	1	n/a	n/a
262.02	3.5	genericItem	n/a	n/a	10513	1	5	13	66	1	n/a	n/a
266.02	3.5	controlItem	n/a	n/a	10514	1	5	14	67	1	n/a	n/a
270.021	3.5	controlItem	n/a	n/a	10515	1	5	15	68	1	n/a	controlFoil2
274.021	3.5	criticalItem	n/a	n/a	20516	2	5	16	69	1	n/a	criticalFoil
278.021	3.5	controlItem	n/a	n/a	10517	1	5	17	70	1	n/a	controlFoil2
282.021	3.5	controlItem	n/a	n/a	10518	1	5	18	71	1	n/a	controlFoil2
286.022	3.5	criticalItem	n/a	n/a	20519	2	5	19	72	1	n/a	criticalFalse
290.02	3.5	genericItem	n/a	n/a	10520	1	5	20	73	1	n/a	n/a
294.02	3.5	criticalItem	n/a	n/a	20521	2	5	21	74	1	n/a	criticalFoil
298.02	3.5	controlItem	n/a	n/a	10522	1	5	22	75	1	n/a	controlFoil1
302.02	3.5	criticalItem	n/a	n/a	20523	2	5	23	76	1	n/a	criticalFalse
306.021	3.5	controlItem	n/a	n/a	10524	1	5	24	77	1	n/a	controlTrue
310.021	3.5	controlItem	n/a	n/a	10525	1	5	25	78	1	n/a	controlTrue
314.02	3.5	criticalItem	n/a	n/a	20526	2	5	26	79	1	n/a	criticalFoil
318.02	3.5	controlItem	n/a	n/a	10527	1	5	27	80	1	n/a	controlTrue
322.022	3.5	genericItem	1	0.699	10528	1	5	28	81	1	1	n/a
326.02	3.5	genericItem	n/a	n/a	10529	1	5	29	82	1	n/a	n/a
330.02	3.5	genericItem	1	0.926	10530	1	5	30	83	1	1	n/a
334.025	3.5	criticalItem	n/a	n/a	20531	2	5	31	84	1	n/a	criticalTrue
338.021	3.5	controlItem	n/a	n/a	10532	1	5	32	85	1	n/a	controlFoil2
342.021	3.5	genericItem	n/a	n/a	10533	1	5	33	86	1	n/a	n/a
346.021	3.5	genericItem	n/a	n/a	10534	1	5	34	87	1	n/a	n/a
350.02	3.5	genericItem	n/a	n/a	10535	1	5	35	88	1	n/a	n/a
354.021	3.5	genericItem	n/a	n/a	10536	1	5	36	89	1	n/a	n/a
358.022	3.5	genericItem	1	0.909	10537	1	5	37	90	1	1	n/a
362.02	3.5	genericItem	n/a	n/a	10538	1	5	38	91	1	n/a	n/a
366.02	3.5	criticalItem	n/a	n/a	20539	2	5	39	92	1	n/a	criticalTrue
370.021	3.5	genericItem	n/a	n/a	10540	1	5	40	93	1	n/a	n/a
374.021	3.5	criticalItem	n/a	n/a	20541	2	5	41	94	1	n/a	criticalFalse
378.02	3.5	controlItem	n/a	n/a	10542	1	5	42	95	1	n/a	controlFoil1
382.021	3.5	genericItem	n/a	n/a	10543	1	5	43	96	1	n/a	n/a
386.021	3.5	genericItem	n/a	n/a	10544	1	5	44	97	1	n/a	n/a
390.021	3.5	genericItem	n/a	n/a	10545	1	5	45	98	1	n/a	n/a
394.02	3.5	controlItem	n/a	n/a	10546	1	5	46	99	1	n/a	controlFoil1
398.02	3.5	criticalItem	n/a	n/a	20547	2	5	47	100	1	n/a	criticalTrue
402.02	3.5	genericItem	n/a	n/a	10548	1	5	48	101	1	n/a	n/a
406.02	3.5	controlItem	n/a	n/a	10549	1	5	49	102	1	n/a	controlTrue
410.02	3.5	criticalItem	n/a	n/a	20550	2	5	50	103	1	n/a	criticalFalse
414.021	n/a	n/a	n/a	n/a	90500	9	5	0	104	1	n/a	n/a
418.021	n/a	n/a	n/a	n/a	90000	5	0	0	105	1	n/a	n/a
