onset	duration	trial_type	response	response_time	stim_id	stim_version	stim_events	stim_slides	trial_id	run_id	stim_redcross	subsequent_response_type
2.0287	n/a	n/a	n/a	n/a	80400	8	4	0	106	2	n/a	n/a
6.0301	3.5	genericItem	n/a	n/a	10401	1	4	1	107	2	n/a	n/a
10.0283	3.5	genericItem	n/a	n/a	10402	1	4	2	108	2	n/a	n/a
14.0288	3.5	genericItem	n/a	n/a	10403	1	4	3	109	2	n/a	n/a
18.0279	3.5	criticalItem	n/a	n/a	10404	1	4	4	110	2	n/a	criticalFoil
22.0287	3.5	genericItem	n/a	n/a	10405	1	4	5	111	2	n/a	n/a
26.0292	3.5	genericItem	n/a	n/a	10406	1	4	6	112	2	n/a	n/a
30.028	3.5	criticalItem	n/a	n/a	10407	1	4	7	113	2	n/a	criticalTrue
34.0299	3.5	genericItem	n/a	n/a	10408	1	4	8	114	2	n/a	n/a
38.0289	3.5	controlItem	n/a	n/a	10409	1	4	9	115	2	n/a	controlTrue
42.0289	3.5	genericItem	n/a	n/a	10410	1	4	10	116	2	n/a	n/a
46.0298	3.5	criticalItem	n/a	n/a	10411	1	4	11	117	2	n/a	n/a
50.0281	3.5	controlItem	n/a	n/a	10412	1	4	12	118	2	n/a	controlFoil1
54.0301	3.5	genericItem	n/a	n/a	10413	1	4	13	119	2	n/a	n/a
58.0285	3.5	genericItem	n/a	n/a	10414	1	4	14	120	2	n/a	n/a
62.0279	3.5	criticalItem	n/a	n/a	10415	1	4	15	121	2	n/a	criticalTrue
66.0285	3.5	controlItem	n/a	n/a	10416	1	4	16	122	2	n/a	controlFoil1
70.0293	3.5	criticalItem	n/a	n/a	10417	1	4	17	123	2	n/a	criticalTrue
74.0295	3.5	genericItem	n/a	n/a	10418	1	4	18	124	2	n/a	n/a
78.0284	3.5	criticalItem	n/a	n/a	10419	1	4	19	125	2	n/a	criticalFoil
82.0292	3.5	genericItem	n/a	n/a	10420	1	4	20	126	2	1	n/a
86.0289	3.5	genericItem	n/a	n/a	10421	1	4	21	127	2	n/a	n/a
90.0299	3.5	controlItem	n/a	n/a	10422	1	4	22	128	2	n/a	controlFoil1
94.029	3.5	genericItem	n/a	n/a	10423	1	4	23	129	2	n/a	n/a
98.0301	3.5	criticalItem	n/a	n/a	10424	1	4	24	130	2	n/a	criticalTrue
102.029	3.5	controlItem	n/a	n/a	10425	1	4	25	131	2	n/a	controlTrue
106.028	3.5	genericItem	n/a	n/a	10426	1	4	26	132	2	1	n/a
110.028	3.5	genericItem	n/a	n/a	10427	1	4	27	133	2	n/a	n/a
114.029	3.5	genericItem	1	0.327	10428	1	4	28	134	2	1	n/a
118.028	3.5	criticalItem	n/a	n/a	10429	1	4	29	135	2	n/a	criticalTrue
122.028	3.5	controlItem	n/a	n/a	10430	1	4	30	136	2	n/a	controlTrue
126.029	3.5	genericItem	n/a	n/a	10431	1	4	31	137	2	n/a	n/a
130.03	3.5	genericItem	n/a	n/a	10432	1	4	32	138	2	n/a	n/a
134.028	3.5	genericItem	n/a	n/a	10433	1	4	33	139	2	n/a	n/a
138.029	3.5	genericItem	n/a	n/a	10434	1	4	34	140	2	n/a	n/a
142.028	3.5	genericItem	n/a	n/a	10435	1	4	35	141	2	n/a	n/a
146.028	3.5	criticalItem	n/a	n/a	10436	1	4	36	142	2	n/a	criticalFalse
150.028	3.5	genericItem	n/a	n/a	10437	1	4	37	143	2	n/a	n/a
154.029	3.5	criticalItem	n/a	n/a	10438	1	4	38	144	2	n/a	criticalTrue
158.028	3.5	genericItem	n/a	n/a	10439	1	4	39	145	2	n/a	n/a
162.028	3.5	criticalItem	n/a	n/a	10440	1	4	40	146	2	n/a	criticalTrue
166.027	3.5	genericItem	n/a	n/a	10441	1	4	41	147	2	n/a	n/a
170.03	3.5	controlItem	n/a	n/a	10442	1	4	42	148	2	n/a	controlTrue
174.028	3.5	controlItem	n/a	n/a	10443	1	4	43	149	2	n/a	controlFoil1
178.028	3.5	controlItem	n/a	n/a	10444	1	4	44	150	2	n/a	controlTrue
182.027	3.5	genericItem	n/a	n/a	10445	1	4	45	151	2	n/a	n/a
186.029	3.5	controlItem	n/a	n/a	10446	1	4	46	152	2	n/a	controlTrue
190.028	3.5	genericItem	n/a	n/a	10447	1	4	47	153	2	n/a	n/a
194.029	3.5	controlItem	n/a	n/a	10448	1	4	48	154	2	n/a	n/a
198.028	3.5	criticalItem	n/a	n/a	10449	1	4	49	155	2	n/a	criticalFalse
202.026	3.5	controlItem	n/a	n/a	10450	1	4	50	156	2	n/a	controlFoil1
206.024	n/a	n/a	n/a	n/a	90400	9	4	0	157	2	n/a	n/a
210.023	n/a	n/a	n/a	n/a	80300	8	3	0	158	2	n/a	n/a
214.026	3.5	genericItem	n/a	n/a	10301	1	3	1	159	2	n/a	n/a
218.026	3.5	genericItem	n/a	n/a	10302	1	3	2	160	2	n/a	n/a
222.027	3.5	controlItem	n/a	n/a	10303	1	3	3	161	2	n/a	controlFoil2
226.026	3.5	genericItem	n/a	n/a	10304	1	3	4	162	2	n/a	n/a
230.03	3.5	criticalItem	n/a	n/a	10305	1	3	5	163	2	n/a	criticalFalse
234.027	3.5	genericItem	n/a	n/a	10306	1	3	6	164	2	n/a	n/a
238.027	3.5	genericItem	n/a	n/a	10307	1	3	7	165	2	n/a	n/a
242.028	3.5	genericItem	n/a	n/a	10308	1	3	8	166	2	n/a	n/a
246.028	3.5	controlItem	n/a	n/a	10309	1	3	9	167	2	n/a	controlFoil2
250.028	3.5	genericItem	n/a	n/a	10310	1	3	10	168	2	n/a	n/a
254.028	3.5	genericItem	n/a	n/a	10311	1	3	11	169	2	n/a	n/a
258.03	3.5	genericItem	n/a	n/a	10312	1	3	12	170	2	n/a	n/a
262.028	3.5	controlItem	n/a	n/a	10313	1	3	13	171	2	n/a	controlTrue
266.028	3.5	genericItem	n/a	n/a	10314	1	3	14	172	2	n/a	n/a
270.028	3.5	genericItem	n/a	n/a	10315	1	3	15	173	2	n/a	n/a
274.028	3.5	criticalItem	n/a	n/a	10316	1	3	16	174	2	n/a	criticalFalse
278.028	3.5	controlItem	n/a	n/a	10317	1	3	17	175	2	n/a	controlTrue
282.028	3.5	genericItem	1	0.924	10318	1	3	18	176	2	1	n/a
286.027	3.5	criticalItem	n/a	n/a	10319	1	3	19	177	2	n/a	criticalFalse
290.027	3.5	controlItem	n/a	n/a	10320	1	3	20	178	2	n/a	controlTrue
294.028	3.5	genericItem	n/a	n/a	10321	1	3	21	179	2	n/a	n/a
298.026	3.5	criticalItem	n/a	n/a	10322	1	3	22	180	2	n/a	criticalTrue
302.026	3.5	genericItem	n/a	n/a	10323	1	3	23	181	2	n/a	n/a
306.026	3.5	criticalItem	n/a	n/a	10324	1	3	24	182	2	n/a	criticalTrue
310.028	3.5	controlItem	n/a	n/a	10325	1	3	25	183	2	n/a	controlTrue
314.026	3.5	genericItem	1	0.749	10326	1	3	26	184	2	1	n/a
318.027	3.5	criticalItem	n/a	n/a	10327	1	3	27	185	2	n/a	criticalFalse
322.027	3.5	genericItem	1	0.69	10328	1	3	28	186	2	1	n/a
326.026	3.5	controlItem	n/a	n/a	10329	1	3	29	187	2	n/a	controlFoil1
330.028	3.5	criticalItem	n/a	n/a	10330	1	3	30	188	2	n/a	criticalFalse
334.029	3.5	controlItem	n/a	n/a	10331	1	3	31	189	2	n/a	controlFoil2
338.028	3.5	criticalItem	n/a	n/a	10332	1	3	32	190	2	n/a	criticalFalse
342.029	3.5	genericItem	n/a	n/a	10333	1	3	33	191	2	n/a	n/a
346.026	3.5	genericItem	n/a	n/a	10334	1	3	34	192	2	n/a	n/a
350.028	3.5	genericItem	n/a	n/a	10335	1	3	35	193	2	n/a	n/a
354.028	3.5	criticalItem	n/a	n/a	10336	1	3	36	194	2	n/a	criticalTrue
358.03	3.5	genericItem	n/a	n/a	10337	1	3	37	195	2	n/a	n/a
362.028	3.5	genericItem	n/a	n/a	10338	1	3	38	196	2	n/a	n/a
366.03	3.5	genericItem	n/a	n/a	10339	1	3	39	197	2	n/a	n/a
370.029	3.5	genericItem	1	0.798	10340	1	3	40	198	2	1	n/a
374.028	3.5	criticalItem	n/a	n/a	10341	1	3	41	199	2	n/a	criticalFoil
378.028	3.5	controlItem	n/a	n/a	10342	1	3	42	200	2	n/a	controlFoil1
382.027	3.5	genericItem	n/a	n/a	10343	1	3	43	201	2	n/a	n/a
386.028	3.5	criticalItem	n/a	n/a	10344	1	3	44	202	2	n/a	criticalFalse
390.027	3.5	controlItem	n/a	n/a	10345	1	3	45	203	2	n/a	controlTrue
394.027	3.5	genericItem	n/a	n/a	10346	1	3	46	204	2	n/a	n/a
398.029	3.5	criticalItem	n/a	n/a	10347	1	3	47	205	2	n/a	criticalFalse
402.029	3.5	controlItem	n/a	n/a	10348	1	3	48	206	2	n/a	controlFoil1
406.026	3.5	genericItem	n/a	n/a	10349	1	3	49	207	2	n/a	n/a
410.027	3.5	controlItem	n/a	n/a	10350	1	3	50	208	2	n/a	controlTrue
414.024	n/a	n/a	n/a	n/a	90300	9	3	0	209	2	n/a	n/a
418.023	n/a	n/a	n/a	n/a	90000	9	0	0	210	2	n/a	n/a
