onset	duration	trial_type	response	response_time	stim_id	stim_version	stim_events	stim_slides	trial_id	run_id	stim_redcross	subsequent_response_type
2.0345	n/a	n/a	n/a	n/a	80500	8	5	0	316	4	n/a	n/a
6.0206	3.5	genericItem	n/a	n/a	10501	1	5	1	317	4	n/a	n/a
10.0203	3.5	genericItem	1	0.509	10502	1	5	2	318	4	1	n/a
14.0205	3.5	criticalItem	n/a	n/a	10503	1	5	3	319	4	n/a	criticalFoil
18.0209	3.5	genericItem	n/a	n/a	10504	1	5	4	320	4	n/a	n/a
22.021	3.5	criticalItem	n/a	n/a	10505	1	5	5	321	4	n/a	criticalFalse
26.0211	3.5	genericItem	n/a	n/a	10506	1	5	6	322	4	n/a	n/a
30.0199	3.5	genericItem	n/a	n/a	10507	1	5	7	323	4	n/a	n/a
34.0204	3.5	genericItem	n/a	n/a	10508	1	5	8	324	4	n/a	n/a
38.0197	3.5	genericItem	n/a	n/a	10509	1	5	9	325	4	n/a	n/a
42.02	3.5	genericItem	n/a	n/a	10510	1	5	10	326	4	n/a	n/a
46.0203	3.5	genericItem	n/a	n/a	10511	1	5	11	327	4	n/a	n/a
50.0191	3.5	genericItem	n/a	n/a	10512	1	5	12	328	4	n/a	n/a
54.0196	3.5	genericItem	n/a	n/a	10513	1	5	13	329	4	n/a	n/a
58.02	3.5	controlItem	n/a	n/a	10514	1	5	14	330	4	n/a	controlTrue
62.02	3.5	controlItem	n/a	n/a	10515	1	5	15	331	4	n/a	controlFoil2
66.0197	3.5	criticalItem	n/a	n/a	10516	1	5	16	332	4	n/a	criticalFalse
70.02	3.5	controlItem	n/a	n/a	10517	1	5	17	333	4	n/a	controlFoil2
74.0199	3.5	controlItem	n/a	n/a	10518	1	5	18	334	4	n/a	controlFoil2
78.0196	3.5	criticalItem	n/a	n/a	10519	1	5	19	335	4	n/a	criticalTrue
82.02	3.5	genericItem	n/a	n/a	10520	1	5	20	336	4	n/a	n/a
86.0197	3.5	criticalItem	n/a	n/a	10521	1	5	21	337	4	n/a	criticalFoil
90.0201	3.5	controlItem	n/a	n/a	10522	1	5	22	338	4	n/a	controlFoil1
94.0211	3.5	criticalItem	n/a	n/a	10523	1	5	23	339	4	n/a	criticalFalse
98.0202	3.5	controlItem	n/a	n/a	10524	1	5	24	340	4	n/a	controlFoil1
102.02	3.5	controlItem	n/a	n/a	10525	1	5	25	341	4	n/a	controlTrue
106.02	3.5	criticalItem	n/a	n/a	10526	1	5	26	342	4	n/a	criticalTrue
110.02	3.5	controlItem	n/a	n/a	10527	1	5	27	343	4	n/a	controlFoil2
114.02	3.5	genericItem	n/a	n/a	10528	1	5	28	344	4	n/a	n/a
118.02	3.5	genericItem	1	0.505	10529	1	5	29	345	4	1	n/a
122.022	3.5	genericItem	n/a	n/a	10530	1	5	30	346	4	n/a	n/a
126.021	3.5	criticalItem	n/a	n/a	10531	1	5	31	347	4	n/a	criticalFalse
130.02	3.5	controlItem	n/a	n/a	10532	1	5	32	348	4	n/a	controlFoil2
134.02	3.5	genericItem	n/a	n/a	10533	1	5	33	349	4	n/a	n/a
138.02	3.5	genericItem	n/a	n/a	10534	1	5	34	350	4	n/a	n/a
142.019	3.5	genericItem	n/a	n/a	10535	1	5	35	351	4	n/a	n/a
146.02	3.5	genericItem	n/a	n/a	10536	1	5	36	352	4	n/a	n/a
150.021	3.5	genericItem	n/a	n/a	10537	1	5	37	353	4	n/a	n/a
154.02	3.5	genericItem	n/a	n/a	10538	1	5	38	354	4	n/a	n/a
158.02	3.5	criticalItem	n/a	n/a	10539	1	5	39	355	4	n/a	criticalTrue
162.021	3.5	genericItem	n/a	n/a	10540	1	5	40	356	4	n/a	n/a
166.021	3.5	criticalItem	n/a	n/a	10541	1	5	41	357	4	n/a	criticalFalse
170.019	3.5	controlItem	n/a	n/a	10542	1	5	42	358	4	n/a	controlTrue
174.02	3.5	genericItem	n/a	n/a	10543	1	5	43	359	4	n/a	n/a
178.02	3.5	genericItem	n/a	n/a	10544	1	5	44	360	4	n/a	n/a
182.02	3.5	genericItem	1	0.446	10545	1	5	45	361	4	1	n/a
186.019	3.5	controlItem	n/a	n/a	10546	1	5	46	362	4	n/a	controlFoil1
190.02	3.5	criticalItem	n/a	n/a	10547	1	5	47	363	4	n/a	criticalFoil
194.02	3.5	genericItem	n/a	n/a	10548	1	5	48	364	4	n/a	n/a
198.02	3.5	controlItem	n/a	n/a	10549	1	5	49	365	4	n/a	controlFoil1
202.02	3.5	criticalItem	n/a	n/a	10550	1	5	50	366	4	n/a	criticalTrue
206.02	n/a	n/a	n/a	n/a	90500	9	5	0	367	4	n/a	n/a
210.02	n/a	n/a	n/a	n/a	80700	8	7	0	368	4	n/a	n/a
214.02	3.5	genericItem	n/a	n/a	10701	1	7	1	369	4	n/a	n/a
218.019	3.5	genericItem	n/a	n/a	10702	1	7	2	370	4	n/a	n/a
222.019	3.5	controlItem	n/a	n/a	10703	1	7	3	371	4	n/a	controlTrue
226.02	3.5	criticalItem	n/a	n/a	20704	2	7	4	372	4	n/a	criticalTrue
230.021	3.5	controlItem	n/a	n/a	10705	1	7	5	373	4	n/a	controlTrue
234.02	3.5	genericItem	n/a	n/a	10706	1	7	6	374	4	n/a	n/a
238.019	3.5	controlItem	n/a	n/a	10707	1	7	7	375	4	n/a	controlFoil2
242.02	3.5	controlItem	n/a	n/a	10708	1	7	8	376	4	n/a	controlFoil1
246.02	3.5	criticalItem	n/a	n/a	20709	2	7	9	377	4	n/a	criticalFoil
250.02	3.5	genericItem	n/a	n/a	10710	1	7	10	378	4	n/a	n/a
254.022	3.5	controlItem	n/a	n/a	10711	1	7	11	379	4	n/a	controlTrue
258.021	3.5	criticalItem	n/a	n/a	20712	2	7	12	380	4	n/a	criticalFalse
262.021	3.5	genericItem	1	0.46	10713	1	7	13	381	4	1	n/a
266.019	3.5	controlItem	n/a	n/a	10714	1	7	14	382	4	n/a	controlFoil1
270.019	3.5	genericItem	n/a	n/a	10715	1	7	15	383	4	n/a	n/a
274.02	3.5	genericItem	n/a	n/a	10716	1	7	16	384	4	n/a	n/a
278.021	3.5	genericItem	n/a	n/a	10717	1	7	17	385	4	n/a	n/a
282.02	3.5	controlItem	n/a	n/a	10718	1	7	18	386	4	n/a	controlFoil1
286.021	3.5	criticalItem	n/a	n/a	20719	2	7	19	387	4	n/a	criticalFalse
290.02	3.5	controlItem	n/a	n/a	10720	1	7	20	388	4	n/a	controlFoil2
294.02	3.5	criticalItem	n/a	n/a	20721	2	7	21	389	4	n/a	criticalTrue
298.019	3.5	genericItem	1	0.44	10722	1	7	22	390	4	1	n/a
302.019	3.5	genericItem	n/a	n/a	10723	1	7	23	391	4	n/a	n/a
306.02	3.5	genericItem	n/a	n/a	10724	1	7	24	392	4	n/a	n/a
310.02	3.5	genericItem	n/a	n/a	10725	1	7	25	393	4	n/a	n/a
314.02	3.5	criticalItem	n/a	n/a	20726	2	7	26	394	4	n/a	criticalTrue
318.02	3.5	genericItem	1	0.463	10727	1	7	27	395	4	1	n/a
322.02	3.5	controlItem	n/a	n/a	10728	1	7	28	396	4	n/a	controlFoil2
326.02	3.5	criticalItem	n/a	n/a	20729	2	7	29	397	4	n/a	criticalTrue
330.02	3.5	genericItem	n/a	n/a	10730	1	7	30	398	4	n/a	n/a
334.02	3.5	genericItem	n/a	n/a	10731	1	7	31	399	4	n/a	n/a
338.02	3.5	genericItem	n/a	n/a	10732	1	7	32	400	4	n/a	n/a
342.02	3.5	genericItem	n/a	n/a	10733	1	7	33	401	4	n/a	n/a
346.019	3.5	controlItem	n/a	n/a	10734	1	7	34	402	4	n/a	controlFoil1
350.02	3.5	criticalItem	n/a	n/a	20735	2	7	35	403	4	n/a	criticalTrue
354.021	3.5	genericItem	1	0.437	10736	1	7	36	404	4	1	n/a
358.019	3.5	genericItem	n/a	n/a	10737	1	7	37	405	4	n/a	n/a
362.02	3.5	genericItem	n/a	n/a	10738	1	7	38	406	4	n/a	n/a
366.02	3.5	criticalItem	n/a	n/a	20739	2	7	39	407	4	n/a	criticalFalse
370.02	3.5	controlItem	n/a	n/a	10740	1	7	40	408	4	n/a	controlFoil1
374.019	3.5	genericItem	n/a	n/a	10741	1	7	41	409	4	n/a	n/a
378.019	3.5	genericItem	n/a	n/a	10742	1	7	42	410	4	n/a	n/a
382.02	3.5	genericItem	n/a	n/a	10743	1	7	43	411	4	n/a	n/a
386.021	3.5	criticalItem	n/a	n/a	20744	2	7	44	412	4	n/a	criticalTrue
390.02	3.5	genericItem	n/a	n/a	10745	1	7	45	413	4	n/a	n/a
394.019	3.5	criticalItem	n/a	n/a	20746	2	7	46	414	4	n/a	criticalFalse
398.019	3.5	genericItem	n/a	n/a	10747	1	7	47	415	4	n/a	n/a
402.02	3.5	genericItem	n/a	n/a	10748	1	7	48	416	4	n/a	n/a
406.02	3.5	criticalItem	n/a	n/a	20749	2	7	49	417	4	n/a	criticalFalse
410.02	3.5	controlItem	n/a	n/a	10750	1	7	50	418	4	n/a	controlFoil1
414.019	n/a	n/a	n/a	n/a	90700	9	7	0	419	4	n/a	n/a
418.019	n/a	n/a	n/a	n/a	90000	5	0	0	420	4	n/a	n/a
