onset	duration	trial_type	response	response_time	stim_id	stim_version	stim_events	stim_slides	trial_id	run_id	stim_redcross	subsequent_response_type
2.0288	n/a	n/a	n/a	n/a	80900	8	9	0	106	2	n/a	n/a
6.0254	3.5	genericItem	n/a	n/a	10901	1	9	1	107	2	n/a	n/a
10.0235	3.5	genericItem	n/a	n/a	10902	1	9	2	108	2	n/a	n/a
14.0248	3.5	controlItem	n/a	n/a	10903	1	9	3	109	2	n/a	controlTrue
18.0888	3.5	criticalItem	n/a	n/a	20904	2	9	4	110	2	n/a	criticalFalse
22.0242	3.5	controlItem	n/a	n/a	10905	1	9	5	111	2	n/a	controlTrue
26.0241	3.5	genericItem	1	0.65	10906	1	9	6	112	2	1	n/a
30.0244	3.5	genericItem	1	0.604	10907	1	9	7	113	2	1	n/a
34.1068	3.5	criticalItem	n/a	n/a	20908	2	9	8	114	2	n/a	criticalFalse
38.0236	3.5	controlItem	n/a	n/a	10909	1	9	9	115	2	n/a	controlFoil2
42.0233	3.5	criticalItem	n/a	n/a	20910	2	9	10	116	2	n/a	criticalFoil
46.0236	3.5	controlItem	n/a	n/a	10911	1	9	11	117	2	n/a	controlFoil2
50.0235	3.5	genericItem	n/a	n/a	10912	1	9	12	118	2	n/a	n/a
54.0238	3.5	criticalItem	n/a	n/a	20913	2	9	13	119	2	n/a	criticalFalse
58.0232	3.5	genericItem	n/a	n/a	10914	1	9	14	120	2	n/a	n/a
62.0243	3.5	controlItem	n/a	n/a	10915	1	9	15	121	2	n/a	controlTrue
66.0236	3.5	genericItem	1	0.598	10916	1	9	16	122	2	1	n/a
70.0237	3.5	controlItem	n/a	n/a	10917	1	9	17	123	2	n/a	controlFoil1
74.0235	3.5	genericItem	n/a	n/a	10918	1	9	18	124	2	n/a	n/a
78.071	3.5	criticalItem	n/a	n/a	20919	2	9	19	125	2	n/a	criticalFalse
82.0237	3.5	genericItem	n/a	n/a	10920	1	9	20	126	2	n/a	n/a
86.0266	3.5	genericItem	n/a	n/a	10921	1	9	21	127	2	n/a	n/a
90.0811	3.5	criticalItem	n/a	n/a	20922	2	9	22	128	2	n/a	criticalFalse
94.024	3.5	controlItem	n/a	n/a	10923	1	9	23	129	2	n/a	controlTrue
98.0243	3.5	criticalItem	n/a	n/a	20924	2	9	24	130	2	n/a	criticalFalse
102.023	3.5	genericItem	n/a	n/a	10925	1	9	25	131	2	n/a	n/a
106.083	3.5	criticalItem	n/a	n/a	20926	2	9	26	132	2	n/a	criticalFoil
110.023	3.5	genericItem	n/a	n/a	10927	1	9	27	133	2	n/a	n/a
114.069	3.5	criticalItem	n/a	n/a	20928	2	9	28	134	2	n/a	criticalFalse
118.024	3.5	genericItem	n/a	n/a	10929	1	9	29	135	2	n/a	n/a
122.024	3.5	genericItem	n/a	n/a	10930	1	9	30	136	2	n/a	n/a
126.024	3.5	controlItem	n/a	n/a	10931	1	9	31	137	2	n/a	controlTrue
130.024	3.5	genericItem	n/a	n/a	10932	1	9	32	138	2	n/a	n/a
134.024	3.5	genericItem	n/a	n/a	10933	1	9	33	139	2	n/a	n/a
138.024	3.5	genericItem	n/a	n/a	10934	1	9	34	140	2	n/a	n/a
142.082	3.5	criticalItem	n/a	n/a	20935	2	9	35	141	2	n/a	criticalFalse
146.024	3.5	genericItem	n/a	n/a	10936	1	9	36	142	2	n/a	n/a
150.024	3.5	genericItem	n/a	n/a	10937	1	9	37	143	2	n/a	n/a
154.024	3.5	genericItem	n/a	n/a	10938	1	9	38	144	2	n/a	n/a
158.024	3.5	genericItem	n/a	n/a	10939	1	9	39	145	2	n/a	n/a
162.024	3.5	genericItem	n/a	n/a	10940	1	9	40	146	2	n/a	n/a
166.078	3.5	criticalItem	n/a	n/a	20941	2	9	41	147	2	n/a	criticalTrue
170.023	3.5	genericItem	n/a	n/a	10942	1	9	42	148	2	n/a	n/a
174.024	3.5	controlItem	n/a	n/a	10943	1	9	43	149	2	n/a	controlTrue
178.024	3.5	genericItem	n/a	n/a	10944	1	9	44	150	2	n/a	n/a
182.025	3.5	controlItem	n/a	n/a	10945	1	9	45	151	2	n/a	controlTrue
186.023	3.5	genericItem	n/a	n/a	10946	1	9	46	152	2	n/a	n/a
190.024	3.5	controlItem	n/a	n/a	10947	1	9	47	153	2	n/a	controlTrue
194.024	3.5	genericItem	n/a	n/a	10948	1	9	48	154	2	n/a	n/a
198.061	3.5	criticalItem	n/a	n/a	20949	2	9	49	155	2	n/a	criticalTrue
202.023	3.5	controlItem	n/a	n/a	10950	1	9	50	156	2	n/a	controlTrue
206.023	n/a	n/a	n/a	n/a	90900	9	9	0	157	2	n/a	n/a
210.023	n/a	n/a	n/a	n/a	80500	8	5	0	158	2	n/a	n/a
214.023	3.5	genericItem	n/a	n/a	10501	1	5	1	159	2	n/a	n/a
218.024	3.5	genericItem	n/a	n/a	10502	1	5	2	160	2	n/a	n/a
222.023	3.5	criticalItem	n/a	n/a	20503	2	5	3	161	2	n/a	criticalFoil
226.024	3.5	genericItem	n/a	n/a	10504	1	5	4	162	2	n/a	n/a
230.024	3.5	criticalItem	n/a	n/a	20505	2	5	5	163	2	n/a	criticalTrue
234.024	3.5	genericItem	n/a	n/a	10506	1	5	6	164	2	n/a	n/a
238.024	3.5	genericItem	n/a	n/a	10507	1	5	7	165	2	n/a	n/a
242.024	3.5	genericItem	1	0.675	10508	1	5	8	166	2	1	n/a
246.023	3.5	genericItem	n/a	n/a	10509	1	5	9	167	2	n/a	n/a
250.024	3.5	genericItem	n/a	n/a	10510	1	5	10	168	2	n/a	n/a
254.023	3.5	genericItem	n/a	n/a	10511	1	5	11	169	2	n/a	n/a
258.024	3.5	genericItem	n/a	n/a	10512	1	5	12	170	2	n/a	n/a
262.023	3.5	genericItem	n/a	n/a	10513	1	5	13	171	2	n/a	n/a
266.024	3.5	controlItem	n/a	n/a	10514	1	5	14	172	2	n/a	controlTrue
270.023	3.5	controlItem	n/a	n/a	10515	1	5	15	173	2	n/a	controlFoil2
274.024	3.5	criticalItem	n/a	n/a	20516	2	5	16	174	2	n/a	criticalTrue
278.024	3.5	controlItem	n/a	n/a	10517	1	5	17	175	2	n/a	controlFoil2
282.023	3.5	controlItem	n/a	n/a	10518	1	5	18	176	2	n/a	controlTrue
286.023	3.5	criticalItem	n/a	n/a	20519	2	5	19	177	2	n/a	criticalTrue
290.023	3.5	genericItem	n/a	n/a	10520	1	5	20	178	2	n/a	n/a
294.023	3.5	criticalItem	n/a	n/a	20521	2	5	21	179	2	n/a	criticalTrue
298.024	3.5	controlItem	n/a	n/a	10522	1	5	22	180	2	n/a	controlTrue
302.024	3.5	criticalItem	n/a	n/a	20523	2	5	23	181	2	n/a	criticalFalse
306.023	3.5	controlItem	n/a	n/a	10524	1	5	24	182	2	n/a	controlFoil2
310.024	3.5	controlItem	n/a	n/a	10525	1	5	25	183	2	n/a	controlTrue
314.024	3.5	criticalItem	n/a	n/a	20526	2	5	26	184	2	n/a	criticalFalse
318.024	3.5	controlItem	n/a	n/a	10527	1	5	27	185	2	n/a	controlFoil1
322.024	3.5	genericItem	n/a	n/a	10528	1	5	28	186	2	n/a	n/a
326.024	3.5	genericItem	n/a	n/a	10529	1	5	29	187	2	n/a	n/a
330.023	3.5	genericItem	n/a	n/a	10530	1	5	30	188	2	n/a	n/a
334.024	3.5	criticalItem	n/a	n/a	20531	2	5	31	189	2	n/a	criticalFalse
338.023	3.5	controlItem	n/a	n/a	10532	1	5	32	190	2	n/a	controlFoil2
342.025	3.5	genericItem	n/a	n/a	10533	1	5	33	191	2	n/a	n/a
346.023	3.5	genericItem	n/a	n/a	10534	1	5	34	192	2	n/a	n/a
350.024	3.5	genericItem	n/a	n/a	10535	1	5	35	193	2	n/a	n/a
354.023	3.5	genericItem	n/a	n/a	10536	1	5	36	194	2	n/a	n/a
358.024	3.5	genericItem	n/a	n/a	10537	1	5	37	195	2	n/a	n/a
362.024	3.5	genericItem	1	0.645	10538	1	5	38	196	2	1	n/a
366.024	3.5	criticalItem	n/a	n/a	20539	2	5	39	197	2	n/a	criticalFoil
370.023	3.5	genericItem	n/a	n/a	10540	1	5	40	198	2	n/a	n/a
374.024	3.5	criticalItem	n/a	n/a	20541	2	5	41	199	2	n/a	criticalFalse
378.023	3.5	controlItem	n/a	n/a	10542	1	5	42	200	2	n/a	controlFoil2
382.024	3.5	genericItem	1	0.611	10543	1	5	43	201	2	1	n/a
386.023	3.5	genericItem	n/a	n/a	10544	1	5	44	202	2	n/a	n/a
390.024	3.5	genericItem	1	0.619	10545	1	5	45	203	2	1	n/a
394.023	3.5	controlItem	n/a	n/a	10546	1	5	46	204	2	n/a	controlTrue
398.024	3.5	criticalItem	n/a	n/a	20547	2	5	47	205	2	n/a	criticalTrue
402.024	3.5	genericItem	n/a	n/a	10548	1	5	48	206	2	n/a	n/a
406.023	3.5	controlItem	n/a	n/a	10549	1	5	49	207	2	n/a	controlFoil1
410.023	3.5	criticalItem	n/a	n/a	20550	2	5	50	208	2	n/a	criticalTrue
414.024	n/a	n/a	n/a	n/a	90500	9	5	0	209	2	n/a	n/a
418.024	n/a	n/a	n/a	n/a	90000	5	0	0	210	2	n/a	n/a
