onset	duration	trial_type	response	response_time	stim_id	stim_version	stim_events	stim_slides	trial_id	run_id	stim_redcross	subsequent_response_type
2.0328	n/a	n/a	n/a	n/a	80400	8	4	0	211	3	n/a	n/a
6.0235	3.5	genericItem	n/a	n/a	10401	1	4	1	212	3	n/a	n/a
10.0228	3.5	genericItem	n/a	n/a	10402	1	4	2	213	3	n/a	n/a
14.0248	3.5	genericItem	n/a	n/a	10403	1	4	3	214	3	n/a	n/a
18.0247	3.5	criticalItem	n/a	n/a	20404	2	4	4	215	3	n/a	criticalTrue
22.0238	3.5	genericItem	1	0.802	10405	1	4	5	216	3	1	n/a
26.0228	3.5	genericItem	n/a	n/a	10406	1	4	6	217	3	n/a	n/a
30.0239	3.5	criticalItem	n/a	n/a	20407	2	4	7	218	3	n/a	criticalFalse
34.0235	3.5	genericItem	n/a	n/a	10408	1	4	8	219	3	n/a	n/a
38.024	3.5	controlItem	n/a	n/a	10409	1	4	9	220	3	n/a	controlTrue
42.024	3.5	genericItem	n/a	n/a	10410	1	4	10	221	3	n/a	n/a
46.0248	3.5	criticalItem	n/a	n/a	20411	2	4	11	222	3	n/a	criticalTrue
50.0232	3.5	controlItem	n/a	n/a	10412	1	4	12	223	3	n/a	controlTrue
54.0238	3.5	genericItem	n/a	n/a	10413	1	4	13	224	3	n/a	n/a
58.0236	3.5	genericItem	n/a	n/a	10414	1	4	14	225	3	n/a	n/a
62.0227	3.5	criticalItem	n/a	n/a	20415	2	4	15	226	3	n/a	criticalFalse
66.0231	3.5	controlItem	n/a	n/a	10416	1	4	16	227	3	n/a	controlFoil1
70.0236	3.5	criticalItem	n/a	n/a	20417	2	4	17	228	3	n/a	criticalFalse
74.0232	3.5	genericItem	n/a	n/a	10418	1	4	18	229	3	n/a	n/a
78.0243	3.5	criticalItem	n/a	n/a	20419	2	4	19	230	3	n/a	criticalFalse
82.0236	3.5	genericItem	n/a	n/a	10420	1	4	20	231	3	n/a	n/a
86.0222	3.5	genericItem	n/a	n/a	10421	1	4	21	232	3	n/a	n/a
90.024	3.5	controlItem	n/a	n/a	10422	1	4	22	233	3	n/a	controlTrue
94.0235	3.5	genericItem	1	0.66	10423	1	4	23	234	3	1	n/a
98.0244	3.5	criticalItem	n/a	n/a	20424	2	4	24	235	3	n/a	criticalFoil
102.024	3.5	controlItem	n/a	n/a	10425	1	4	25	236	3	n/a	controlFoil1
106.023	3.5	genericItem	n/a	n/a	10426	1	4	26	237	3	n/a	n/a
110.023	3.5	genericItem	n/a	n/a	10427	1	4	27	238	3	n/a	n/a
114.022	3.5	genericItem	n/a	n/a	10428	1	4	28	239	3	n/a	n/a
118.023	3.5	criticalItem	n/a	n/a	20429	2	4	29	240	3	n/a	criticalTrue
122.023	3.5	controlItem	n/a	n/a	10430	1	4	30	241	3	n/a	controlTrue
126.023	3.5	genericItem	1	0.779	10431	1	4	31	242	3	1	n/a
130.024	3.5	genericItem	n/a	n/a	10432	1	4	32	243	3	n/a	n/a
134.024	3.5	genericItem	n/a	n/a	10433	1	4	33	244	3	n/a	n/a
138.024	3.5	genericItem	n/a	n/a	10434	1	4	34	245	3	n/a	n/a
142.023	3.5	genericItem	n/a	n/a	10435	1	4	35	246	3	n/a	n/a
146.024	3.5	criticalItem	n/a	n/a	20436	2	4	36	247	3	n/a	criticalTrue
150.024	3.5	genericItem	n/a	n/a	10437	1	4	37	248	3	n/a	n/a
154.024	3.5	criticalItem	n/a	n/a	20438	2	4	38	249	3	n/a	criticalTrue
158.024	3.5	genericItem	n/a	n/a	10439	1	4	39	250	3	n/a	n/a
162.024	3.5	criticalItem	n/a	n/a	20440	2	4	40	251	3	n/a	criticalTrue
166.025	3.5	genericItem	n/a	n/a	10441	1	4	41	252	3	n/a	n/a
170.024	3.5	controlItem	n/a	n/a	10442	1	4	42	253	3	n/a	controlTrue
174.023	3.5	controlItem	n/a	n/a	10443	1	4	43	254	3	n/a	controlFoil1
178.023	3.5	controlItem	n/a	n/a	10444	1	4	44	255	3	n/a	controlFoil2
182.022	3.5	genericItem	n/a	n/a	10445	1	4	45	256	3	n/a	n/a
186.023	3.5	controlItem	n/a	n/a	10446	1	4	46	257	3	n/a	controlTrue
190.023	3.5	genericItem	n/a	n/a	10447	1	4	47	258	3	n/a	n/a
194.024	3.5	controlItem	n/a	n/a	10448	1	4	48	259	3	n/a	controlFoil1
198.024	3.5	criticalItem	n/a	n/a	20449	2	4	49	260	3	n/a	criticalFoil
202.025	3.5	controlItem	n/a	n/a	10450	1	4	50	261	3	n/a	controlTrue
206.024	n/a	n/a	n/a	n/a	90400	9	4	0	262	3	n/a	n/a
210.024	n/a	n/a	n/a	n/a	80300	8	3	0	263	3	n/a	n/a
214.024	3.5	genericItem	n/a	n/a	10301	1	3	1	264	3	n/a	n/a
218.024	3.5	genericItem	n/a	n/a	10302	1	3	2	265	3	n/a	n/a
222.023	3.5	controlItem	n/a	n/a	10303	1	3	3	266	3	n/a	controlTrue
226.024	3.5	genericItem	n/a	n/a	10304	1	3	4	267	3	n/a	n/a
230.024	3.5	criticalItem	n/a	n/a	20305	2	3	5	268	3	n/a	criticalTrue
234.023	3.5	genericItem	n/a	n/a	10306	1	3	6	269	3	n/a	n/a
238.023	3.5	genericItem	n/a	n/a	10307	1	3	7	270	3	n/a	n/a
242.023	3.5	genericItem	n/a	n/a	10308	1	3	8	271	3	n/a	n/a
246.023	3.5	controlItem	n/a	n/a	10309	1	3	9	272	3	n/a	controlFoil2
250.024	3.5	genericItem	n/a	n/a	10310	1	3	10	273	3	n/a	n/a
254.023	3.5	genericItem	n/a	n/a	10311	1	3	11	274	3	n/a	n/a
258.022	3.5	genericItem	n/a	n/a	10312	1	3	12	275	3	n/a	n/a
262.024	3.5	controlItem	n/a	n/a	10313	1	3	13	276	3	n/a	controlFoil1
266.024	3.5	genericItem	n/a	n/a	10314	1	3	14	277	3	n/a	n/a
270.024	3.5	genericItem	n/a	n/a	10315	1	3	15	278	3	n/a	n/a
274.024	3.5	criticalItem	n/a	n/a	20316	2	3	16	279	3	n/a	criticalFalse
278.023	3.5	controlItem	n/a	n/a	10317	1	3	17	280	3	n/a	controlTrue
282.023	3.5	genericItem	n/a	n/a	10318	1	3	18	281	3	n/a	n/a
286.025	3.5	criticalItem	n/a	n/a	20319	2	3	19	282	3	n/a	criticalFoil
290.024	3.5	controlItem	n/a	n/a	10320	1	3	20	283	3	n/a	controlTrue
294.024	3.5	genericItem	1	0.537	10321	1	3	21	284	3	1	n/a
298.026	3.5	criticalItem	n/a	n/a	20322	2	3	22	285	3	n/a	criticalFalse
302.025	3.5	genericItem	n/a	n/a	10323	1	3	23	286	3	n/a	n/a
306.023	3.5	criticalItem	n/a	n/a	20324	2	3	24	287	3	n/a	criticalFalse
310.024	3.5	controlItem	n/a	n/a	10325	1	3	25	288	3	n/a	controlFoil2
314.024	3.5	genericItem	n/a	n/a	10326	1	3	26	289	3	n/a	n/a
318.024	3.5	criticalItem	n/a	n/a	20327	2	3	27	290	3	n/a	criticalFalse
322.024	3.5	genericItem	n/a	n/a	10328	1	3	28	291	3	n/a	n/a
326.024	3.5	controlItem	n/a	n/a	10329	1	3	29	292	3	n/a	controlTrue
330.024	3.5	criticalItem	n/a	n/a	20330	2	3	30	293	3	n/a	criticalFalse
334.023	3.5	controlItem	n/a	n/a	10331	1	3	31	294	3	n/a	controlFoil1
338.024	3.5	criticalItem	n/a	n/a	20332	2	3	32	295	3	n/a	criticalTrue
342.024	3.5	genericItem	n/a	n/a	10333	1	3	33	296	3	n/a	n/a
346.024	3.5	genericItem	1	0.522	10334	1	3	34	297	3	1	n/a
350.024	3.5	genericItem	n/a	n/a	10335	1	3	35	298	3	n/a	n/a
354.023	3.5	criticalItem	n/a	n/a	20336	2	3	36	299	3	n/a	criticalFalse
358.024	3.5	genericItem	n/a	n/a	10337	1	3	37	300	3	n/a	n/a
362.023	3.5	genericItem	n/a	n/a	10338	1	3	38	301	3	n/a	n/a
366.023	3.5	genericItem	n/a	n/a	10339	1	3	39	302	3	n/a	n/a
370.023	3.5	genericItem	n/a	n/a	10340	1	3	40	303	3	n/a	n/a
374.024	3.5	criticalItem	n/a	n/a	20341	2	3	41	304	3	n/a	criticalFalse
378.022	3.5	controlItem	n/a	n/a	10342	1	3	42	305	3	n/a	controlFoil1
382.024	3.5	genericItem	n/a	n/a	10343	1	3	43	306	3	n/a	n/a
386.024	3.5	criticalItem	n/a	n/a	20344	2	3	44	307	3	n/a	criticalFalse
390.024	3.5	controlItem	n/a	n/a	10345	1	3	45	308	3	n/a	n/a
394.022	3.5	genericItem	n/a	n/a	10346	1	3	46	309	3	n/a	n/a
398.025	3.5	criticalItem	n/a	n/a	20347	2	3	47	310	3	n/a	criticalFoil
402.023	3.5	controlItem	n/a	n/a	10348	1	3	48	311	3	n/a	controlFoil1
406.023	3.5	genericItem	1	0.548	10349	1	3	49	312	3	1	n/a
410.024	3.5	controlItem	n/a	n/a	10350	1	3	50	313	3	n/a	controlTrue
414.023	n/a	n/a	n/a	n/a	90300	9	3	0	314	3	n/a	n/a
418.022	n/a	n/a	n/a	n/a	90000	5	0	0	315	3	n/a	n/a
