onset	duration	trial_type	response	response_time	stim_id	stim_events	stim_slides	trial_id	run_id	stim_type	response_type
2.00859	n/a	n/a	n/a	n/a	80100	1	0	1	1	8	n/a
12.0085	3.5	controlItem	n/a	n/a	10124	1	24	2	1	1	n/a
15.4917	3.0	controlItem	n/a	n/a	20124	1	24	3	1	0	n/a
18.4903	3.0	controlItem	True	1.616	20124	1	24	4	1	2	controlTrue
22.0062	3.5	criticalItem	n/a	n/a	10136	1	36	5	1	1	n/a
25.4888	3.0	criticalItem	ForbiddenKey	1.828	50136	1	36	6	1	0	n/a
28.4902	3.0	criticalItem	True	0.748	50136	1	36	7	1	5	criticalTrue
32.0048	3.5	criticalItem	n/a	n/a	10114	1	14	8	1	1	n/a
35.488	3.0	criticalItem	n/a	n/a	70114	1	14	9	1	0	n/a
38.4883	3.0	criticalItem	False	0.37	70114	1	14	10	1	7	criticalFalse
42.0044	3.5	controlItem	n/a	n/a	10149	1	49	11	1	1	n/a
45.4877	3.0	controlItem	n/a	n/a	70149	1	49	12	1	0	n/a
48.4882	3.0	controlItem	Foil1	1.036	70149	1	49	13	1	7	controlFoil1
52.0046	3.5	criticalItem	n/a	n/a	10128	1	28	14	1	1	n/a
55.4865	3.0	criticalItem	n/a	n/a	30128	1	28	15	1	0	n/a
58.486	3.0	criticalItem	True	0.935	30128	1	28	16	1	3	criticalTrue
62.0024	3.5	controlItem	n/a	n/a	10125	1	25	17	1	1	n/a
65.4853	3.0	controlItem	n/a	n/a	40125	1	25	18	1	0	n/a
68.4862	3.0	controlItem	Foil1	0.807	40125	1	25	19	1	4	controlFoil1
72.0013	3.5	criticalItem	n/a	n/a	10119	1	19	20	1	1	n/a
75.4839	3.0	criticalItem	n/a	n/a	50119	1	19	21	1	0	n/a
78.4852	3.0	criticalItem	True	0.75	50119	1	19	22	1	5	criticalTrue
82.0009	3.5	controlItem	n/a	n/a	10107	1	7	23	1	1	n/a
85.4831	3.0	controlItem	n/a	n/a	20107	1	7	24	1	0	n/a
88.4825	3.0	controlItem	True	0.575	20107	1	7	25	1	2	controlTrue
92.0013	3.5	controlItem	n/a	n/a	10140	1	40	26	1	1	n/a
95.4819	3.0	controlItem	n/a	n/a	50140	1	40	27	1	0	n/a
98.4829	3.0	controlItem	Foil1	0.726	50140	1	40	28	1	5	controlFoil1
102.014	3.5	controlItem	n/a	n/a	10121	1	21	29	1	1	n/a
105.498	3.0	controlItem	n/a	n/a	20121	1	21	30	1	0	n/a
108.497	3.0	controlItem	True	0.501	20121	1	21	31	1	2	controlTrue
112.014	3.5	criticalItem	n/a	n/a	10110	1	10	32	1	1	n/a
115.498	3.0	criticalItem	n/a	n/a	70110	1	10	33	1	0	n/a
118.496	3.0	criticalItem	True	0.462	70110	1	10	34	1	7	criticalTrue
122.014	3.5	criticalItem	n/a	n/a	10131	1	31	35	1	1	n/a
125.497	3.0	criticalItem	n/a	n/a	70131	1	31	36	1	0	n/a
128.497	3.0	criticalItem	False	1.175	70131	1	31	37	1	7	criticalFalse
132.012	3.5	criticalItem	n/a	n/a	10112	1	12	38	1	1	n/a
135.495	3.0	criticalItem	n/a	n/a	30112	1	12	39	1	0	n/a
138.495	3.0	criticalItem	False	1.125	30112	1	12	40	1	3	criticalFalse
142.012	3.5	criticalItem	n/a	n/a	10117	1	17	41	1	1	n/a
145.495	3.0	criticalItem	n/a	n/a	20117	1	17	42	1	0	n/a
148.494	3.0	criticalItem	True	0.866	20117	1	17	43	1	2	criticalTrue
152.01	3.5	controlItem	n/a	n/a	10132	1	32	44	1	1	n/a
155.493	3.0	controlItem	n/a	n/a	20132	1	32	45	1	0	n/a
158.493	3.0	controlItem	True	1.073	20132	1	32	46	1	2	controlTrue
162.009	3.5	controlItem	n/a	n/a	10116	1	16	47	1	1	n/a
165.493	3.0	controlItem	n/a	n/a	60116	1	16	48	1	0	n/a
168.493	3.0	controlItem	True	1.105	60116	1	16	49	1	6	controlTrue
172.009	3.5	controlItem	n/a	n/a	10146	1	46	50	1	1	n/a
175.492	3.0	controlItem	n/a	n/a	60146	1	46	51	1	0	n/a
178.491	3.0	controlItem	True	0.806	60146	1	46	52	1	6	controlTrue
182.007	3.5	criticalItem	n/a	n/a	10150	1	50	53	1	1	n/a
185.49	3.0	criticalItem	n/a	n/a	30150	1	50	54	1	0	n/a
188.49	3.0	criticalItem	Foil	2.762	30150	1	50	55	1	3	criticalFoil
192.006	3.5	controlItem	n/a	n/a	10104	1	4	56	1	1	n/a
195.489	3.0	controlItem	n/a	n/a	30104	1	4	57	1	0	n/a
198.49	3.0	controlItem	Foil2	1.282	30104	1	4	58	1	3	controlFoil2
202.006	3.5	criticalItem	n/a	n/a	10126	1	26	59	1	1	n/a
205.488	3.0	criticalItem	n/a	n/a	60126	1	26	60	1	0	n/a
208.487	3.0	criticalItem	Foil	0.532	60126	1	26	61	1	6	criticalFoil
212.004	3.5	criticalItem	n/a	n/a	10141	1	41	62	1	1	n/a
215.486	3.0	criticalItem	n/a	n/a	40141	1	41	63	1	0	n/a
218.488	3.0	criticalItem	False	1.209	40141	1	41	64	1	4	criticalFalse
222.003	3.5	controlItem	n/a	n/a	10118	1	18	65	1	1	n/a
225.486	3.0	controlItem	n/a	n/a	20118	1	18	66	1	0	n/a
228.487	3.0	controlItem	True	0.573	20118	1	18	67	1	2	controlTrue
232.003	3.5	controlItem	n/a	n/a	10123	1	23	68	1	1	n/a
235.486	3.0	controlItem	n/a	n/a	40123	1	23	69	1	0	n/a
238.486	3.0	controlItem	True	1.616	40123	1	23	70	1	4	controlTrue
242.001	3.5	criticalItem	n/a	n/a	10122	1	22	71	1	1	n/a
245.484	3.0	criticalItem	n/a	n/a	60122	1	22	72	1	0	n/a
248.485	3.0	criticalItem	True	0.39	60122	1	22	73	1	6	criticalTrue
252	n/a	n/a	n/a	n/a	90100	1	0	74	1	9	n/a
256	n/a	n/a	n/a	n/a	81000	10	0	75	1	8	n/a
266.015	3.5	controlItem	n/a	n/a	11031	10	31	76	1	1	n/a
269.499	3.0	controlItem	n/a	n/a	71031	10	31	77	1	0	n/a
272.498	3.0	controlItem	Foil1	1.3	71031	10	31	78	1	7	controlFoil1
276.015	3.5	criticalItem	n/a	n/a	11010	10	10	79	1	1	n/a
279.498	3.0	criticalItem	ForbiddenKey	1.461	71010	10	10	80	1	0	n/a
282.497	3.0	criticalItem	True	0.541	71010	10	10	81	1	7	criticalTrue
286.013	3.5	criticalItem	n/a	n/a	11015	10	15	82	1	1	n/a
289.497	3.0	criticalItem	n/a	n/a	31015	10	15	83	1	0	n/a
292.496	3.0	criticalItem	False	1.875	31015	10	15	84	1	3	criticalFalse
296.014	3.5	controlItem	n/a	n/a	11040	10	40	85	1	1	n/a
299.495	3.0	controlItem	n/a	n/a	61040	10	40	86	1	0	n/a
302.496	3.0	controlItem	True	0.586	61040	10	40	87	1	6	controlTrue
306.011	3.5	criticalItem	n/a	n/a	11033	10	33	88	1	1	n/a
309.496	3.0	criticalItem	n/a	n/a	21033	10	33	89	1	0	n/a
312.494	3.0	criticalItem	False	0.638	21033	10	33	90	1	2	criticalFalse
316.01	3.5	controlItem	n/a	n/a	11028	10	28	91	1	1	n/a
319.494	3.0	controlItem	n/a	n/a	71028	10	28	92	1	0	n/a
322.494	3.0	controlItem	True	1.074	71028	10	28	93	1	7	controlTrue
326.009	3.5	criticalItem	n/a	n/a	11020	10	20	94	1	1	n/a
329.492	3.0	criticalItem	n/a	n/a	41020	10	20	95	1	0	n/a
332.493	3.0	criticalItem	False	0.729	41020	10	20	96	1	4	criticalFalse
336.008	3.5	controlItem	n/a	n/a	11021	10	21	97	1	1	n/a
339.492	3.0	controlItem	n/a	n/a	41021	10	21	98	1	0	n/a
342.491	3.0	controlItem	True	0.78	41021	10	21	99	1	4	controlTrue
346.008	3.5	controlItem	n/a	n/a	11019	10	19	100	1	1	n/a
349.491	3.0	controlItem	n/a	n/a	21019	10	19	101	1	0	n/a
352.49	3.0	controlItem	True	0.897	21019	10	19	102	1	2	controlTrue
356.007	3.5	controlItem	n/a	n/a	11039	10	39	103	1	1	n/a
359.489	3.0	controlItem	n/a	n/a	31039	10	39	104	1	0	n/a
362.49	3.0	controlItem	True	1.147	31039	10	39	105	1	3	controlTrue
366.005	3.5	criticalItem	n/a	n/a	11003	10	3	106	1	1	n/a
369.488	3.0	criticalItem	n/a	n/a	71003	10	3	107	1	0	n/a
372.487	3.0	criticalItem	True	0.413	71003	10	3	108	1	7	criticalTrue
376.005	3.5	controlItem	n/a	n/a	11049	10	49	109	1	1	n/a
379.487	3.0	controlItem	n/a	n/a	71049	10	49	110	1	0	n/a
382.487	3.0	controlItem	True	1.051	71049	10	49	111	1	7	controlTrue
386.003	3.5	criticalItem	n/a	n/a	11018	10	18	112	1	1	n/a
389.487	3.0	criticalItem	n/a	n/a	51018	10	18	113	1	0	n/a
392.486	3.0	criticalItem	True	1.847	51018	10	18	114	1	5	criticalTrue
396.003	3.5	criticalItem	n/a	n/a	11045	10	45	115	1	1	n/a
399.486	3.0	criticalItem	n/a	n/a	31045	10	45	116	1	0	n/a
402.485	3.0	criticalItem	True	0.47	31045	10	45	117	1	3	criticalTrue
406.002	3.5	criticalItem	n/a	n/a	11008	10	8	118	1	1	n/a
409.485	3.0	criticalItem	n/a	n/a	31008	10	8	119	1	0	n/a
412.484	3.0	criticalItem	True	0.67	31008	10	8	120	1	3	criticalTrue
416	3.5	criticalItem	n/a	n/a	11026	10	26	121	1	1	n/a
419.483	3.0	criticalItem	n/a	n/a	61026	10	26	122	1	0	n/a
422.484	3.0	criticalItem	False	0.718	61026	10	26	123	1	6	criticalFalse
425.999	3.5	criticalItem	n/a	n/a	11023	10	23	124	1	1	n/a
429.482	3.0	criticalItem	n/a	n/a	21023	10	23	125	1	0	n/a
432.482	3.0	criticalItem	False	0.562	21023	10	23	126	1	2	criticalFalse
435.999	3.5	criticalItem	n/a	n/a	11035	10	35	127	1	1	n/a
439.482	3.0	criticalItem	n/a	n/a	21035	10	35	128	1	0	n/a
442.481	3.0	criticalItem	Foil	0.569	21035	10	35	129	1	2	criticalFoil
446.013	3.5	controlItem	n/a	n/a	11046	10	46	130	1	1	n/a
449.498	3.0	controlItem	n/a	n/a	71046	10	46	131	1	0	n/a
452.498	3.0	controlItem	True	1.602	71046	10	46	132	1	7	controlTrue
456.013	3.5	controlItem	n/a	n/a	11017	10	17	133	1	1	n/a
459.496	3.0	controlItem	n/a	n/a	41017	10	17	134	1	0	n/a
462.496	3.0	controlItem	Foil2	0.542	41017	10	17	135	1	4	controlFoil2
466.012	3.5	controlItem	n/a	n/a	11037	10	37	136	1	1	n/a
469.496	3.0	controlItem	n/a	n/a	71037	10	37	137	1	0	n/a
472.495	3.0	controlItem	Foil2	2.406	71037	10	37	138	1	7	controlFoil2
476.01	3.5	controlItem	n/a	n/a	11038	10	38	139	1	1	n/a
479.496	3.0	controlItem	n/a	n/a	61038	10	38	140	1	0	n/a
482.494	3.0	controlItem	True	0.717	61038	10	38	141	1	6	controlTrue
486.009	3.5	criticalItem	n/a	n/a	11005	10	5	142	1	1	n/a
489.493	3.0	criticalItem	n/a	n/a	61005	10	5	143	1	0	n/a
492.492	3.0	criticalItem	Foil	1.365	61005	10	5	144	1	6	criticalFoil
496.008	3.5	controlItem	n/a	n/a	11029	10	29	145	1	1	n/a
499.492	3.0	controlItem	n/a	n/a	51029	10	29	146	1	0	n/a
502.492	3.0	controlItem	Foil1	0.541	51029	10	29	147	1	5	controlFoil1
506.009	n/a	n/a	n/a	n/a	91000	10	0	148	1	9	n/a
