onset	duration	trial_type	response	response_time	stim_id	stim_version	stim_events	stim_slides	trial_id	run_id	stim_redcross	subsequent_response_type
2.0285	n/a	n/a	n/a	n/a	80200	8	2	0	1	1	n/a	n/a
6.0258	3.5	genericItem	n/a	n/a	10201	1	2	1	2	1	n/a	n/a
10.024	3.5	genericItem	n/a	n/a	10202	1	2	2	3	1	n/a	n/a
14.0239	3.5	genericItem	n/a	n/a	10203	1	2	3	4	1	n/a	n/a
18.0234	3.5	controlItem	n/a	n/a	10204	1	2	4	5	1	n/a	controlFoil1
22.0241	3.5	controlItem	n/a	n/a	10205	1	2	5	6	1	n/a	controlTrue
26.0245	3.5	genericItem	n/a	n/a	10206	1	2	6	7	1	n/a	n/a
30.0225	3.5	controlItem	n/a	n/a	10207	1	2	7	8	1	n/a	controlTrue
34.0229	3.5	genericItem	1	0.491	10208	1	2	8	9	1	1	n/a
38.0236	3.5	genericItem	n/a	n/a	10209	1	2	9	10	1	n/a	n/a
42.0236	3.5	genericItem	n/a	n/a	10210	1	2	10	11	1	n/a	n/a
46.0237	3.5	genericItem	n/a	n/a	10211	1	2	11	12	1	n/a	n/a
50.0235	3.5	genericItem	n/a	n/a	10212	1	2	12	13	1	n/a	n/a
54.0229	3.5	genericItem	1	0.372	10213	1	2	13	14	1	1	n/a
58.0239	3.5	criticalItem	n/a	n/a	10214	1	2	14	15	1	n/a	criticalTrue
62.0238	3.5	genericItem	n/a	n/a	10215	1	2	15	16	1	n/a	n/a
66.0235	3.5	genericItem	n/a	n/a	10216	1	2	16	17	1	n/a	n/a
70.0229	3.5	controlItem	n/a	n/a	10217	1	2	17	18	1	n/a	controlTrue
74.0242	3.5	genericItem	n/a	n/a	10218	1	2	18	19	1	n/a	n/a
78.0231	3.5	criticalItem	n/a	n/a	10219	1	2	19	20	1	n/a	criticalFalse
82.024	3.5	genericItem	n/a	n/a	10220	1	2	20	21	1	n/a	n/a
86.0237	3.5	genericItem	n/a	n/a	10221	1	2	21	22	1	n/a	n/a
90.0234	3.5	controlItem	n/a	n/a	10222	1	2	22	23	1	n/a	controlTrue
94.0233	3.5	criticalItem	n/a	n/a	10223	1	2	23	24	1	n/a	criticalFalse
98.0228	3.5	genericItem	n/a	n/a	10224	1	2	24	25	1	n/a	n/a
102.023	3.5	criticalItem	n/a	n/a	10225	1	2	25	26	1	n/a	criticalFalse
106.024	3.5	genericItem	n/a	n/a	10226	1	2	26	27	1	n/a	n/a
110.023	3.5	genericItem	n/a	n/a	10227	1	2	27	28	1	n/a	n/a
114.024	3.5	criticalItem	n/a	n/a	10228	1	2	28	29	1	n/a	criticalTrue
118.025	3.5	genericItem	n/a	n/a	10229	1	2	29	30	1	n/a	n/a
122.023	3.5	controlItem	n/a	n/a	10230	1	2	30	31	1	n/a	controlTrue
126.024	3.5	criticalItem	n/a	n/a	10231	1	2	31	32	1	n/a	criticalTrue
130.023	3.5	controlItem	n/a	n/a	10232	1	2	32	33	1	n/a	controlTrue
134.024	3.5	genericItem	n/a	n/a	10233	1	2	33	34	1	n/a	n/a
138.023	3.5	criticalItem	n/a	n/a	10234	1	2	34	35	1	n/a	criticalFalse
142.024	3.5	controlItem	n/a	n/a	10235	1	2	35	36	1	n/a	controlFoil2
146.025	3.5	criticalItem	n/a	n/a	10236	1	2	36	37	1	n/a	criticalFalse
150.024	3.5	controlItem	n/a	n/a	10237	1	2	37	38	1	n/a	controlFoil2
154.024	3.5	criticalItem	n/a	n/a	10238	1	2	38	39	1	n/a	criticalTrue
158.025	3.5	genericItem	n/a	n/a	10239	1	2	39	40	1	n/a	n/a
162.024	3.5	genericItem	n/a	n/a	10240	1	2	40	41	1	n/a	n/a
166.024	3.5	criticalItem	n/a	n/a	10241	1	2	41	42	1	n/a	criticalFalse
170.024	3.5	controlItem	n/a	n/a	10242	1	2	42	43	1	n/a	controlTrue
174.023	3.5	genericItem	n/a	n/a	10243	1	2	43	44	1	n/a	n/a
178.023	3.5	genericItem	n/a	n/a	10244	1	2	44	45	1	n/a	n/a
182.024	3.5	criticalItem	n/a	n/a	10245	1	2	45	46	1	n/a	criticalTrue
186.024	3.5	controlItem	n/a	n/a	10246	1	2	46	47	1	n/a	controlFoil1
190.024	3.5	genericItem	n/a	n/a	10247	1	2	47	48	1	n/a	n/a
194.024	3.5	controlItem	n/a	n/a	10248	1	2	48	49	1	n/a	controlTrue
198.023	3.5	criticalItem	n/a	n/a	10249	1	2	49	50	1	n/a	criticalTrue
202.024	3.5	genericItem	1	0.344	10250	1	2	50	51	1	1	n/a
206.024	n/a	n/a	n/a	n/a	90200	9	2	0	52	1	n/a	n/a
210.023	n/a	n/a	n/a	n/a	80700	8	7	0	53	1	n/a	n/a
214.024	3.5	genericItem	n/a	n/a	10701	1	7	1	54	1	n/a	n/a
218.025	3.5	genericItem	n/a	n/a	10702	1	7	2	55	1	n/a	n/a
222.024	3.5	controlItem	n/a	n/a	10703	1	7	3	56	1	n/a	controlFoil1
226.023	3.5	criticalItem	n/a	n/a	10704	1	7	4	57	1	n/a	criticalFalse
230.024	3.5	controlItem	n/a	n/a	10705	1	7	5	58	1	n/a	controlFoil2
234.023	3.5	genericItem	n/a	n/a	10706	1	7	6	59	1	n/a	n/a
238.024	3.5	controlItem	n/a	n/a	10707	1	7	7	60	1	n/a	controlFoil2
242.024	3.5	controlItem	n/a	n/a	10708	1	7	8	61	1	n/a	controlTrue
246.023	3.5	criticalItem	n/a	n/a	10709	1	7	9	62	1	n/a	criticalFalse
250.023	3.5	genericItem	n/a	n/a	10710	1	7	10	63	1	n/a	n/a
254.023	3.5	controlItem	n/a	n/a	10711	1	7	11	64	1	n/a	controlTrue
258.023	3.5	criticalItem	n/a	n/a	10712	1	7	12	65	1	n/a	criticalTrue
262.024	3.5	genericItem	1	0.343	10713	1	7	13	66	1	1	n/a
266.024	3.5	controlItem	n/a	n/a	10714	1	7	14	67	1	n/a	controlTrue
270.024	3.5	genericItem	n/a	n/a	10715	1	7	15	68	1	n/a	n/a
274.023	3.5	genericItem	n/a	n/a	10716	1	7	16	69	1	n/a	n/a
278.023	3.5	genericItem	1	0.337	10717	1	7	17	70	1	1	n/a
282.024	3.5	controlItem	n/a	n/a	10718	1	7	18	71	1	n/a	controlTrue
286.024	3.5	criticalItem	n/a	n/a	10719	1	7	19	72	1	n/a	criticalFoil
290.025	3.5	controlItem	n/a	n/a	10720	1	7	20	73	1	n/a	controlFoil1
294.024	3.5	criticalItem	n/a	n/a	10721	1	7	21	74	1	n/a	criticalTrue
298.024	3.5	genericItem	n/a	n/a	10722	1	7	22	75	1	n/a	n/a
302.023	3.5	genericItem	n/a	n/a	10723	1	7	23	76	1	n/a	n/a
306.024	3.5	genericItem	n/a	n/a	10724	1	7	24	77	1	n/a	n/a
310.024	3.5	genericItem	n/a	n/a	10725	1	7	25	78	1	n/a	n/a
314.024	3.5	criticalItem	n/a	n/a	10726	1	7	26	79	1	n/a	criticalFalse
318.024	3.5	genericItem	n/a	n/a	10727	1	7	27	80	1	n/a	n/a
322.024	3.5	controlItem	n/a	n/a	10728	1	7	28	81	1	n/a	controlTrue
326.023	3.5	criticalItem	n/a	n/a	10729	1	7	29	82	1	n/a	criticalTrue
330.023	3.5	genericItem	n/a	n/a	10730	1	7	30	83	1	n/a	n/a
334.024	3.5	genericItem	n/a	n/a	10731	1	7	31	84	1	n/a	n/a
338.024	3.5	genericItem	n/a	n/a	10732	1	7	32	85	1	n/a	n/a
342.026	3.5	genericItem	n/a	n/a	10733	1	7	33	86	1	n/a	n/a
346.024	3.5	controlItem	n/a	n/a	10734	1	7	34	87	1	n/a	controlFoil1
350.024	3.5	criticalItem	n/a	n/a	10735	1	7	35	88	1	n/a	criticalFalse
354.024	3.5	genericItem	n/a	n/a	10736	1	7	36	89	1	n/a	n/a
358.024	3.5	genericItem	n/a	n/a	10737	1	7	37	90	1	n/a	n/a
362.024	3.5	genericItem	n/a	n/a	10738	1	7	38	91	1	n/a	n/a
366.024	3.5	criticalItem	n/a	n/a	10739	1	7	39	92	1	n/a	criticalFalse
370.024	3.5	controlItem	n/a	n/a	10740	1	7	40	93	1	n/a	controlFoil1
374.023	3.5	genericItem	n/a	n/a	10741	1	7	41	94	1	n/a	n/a
378.024	3.5	genericItem	n/a	n/a	10742	1	7	42	95	1	n/a	n/a
382.024	3.5	genericItem	1	0.459	10743	1	7	43	96	1	1	n/a
386.023	3.5	criticalItem	n/a	n/a	10744	1	7	44	97	1	n/a	criticalFalse
390.024	3.5	genericItem	1	0.326	10745	1	7	45	98	1	1	n/a
394.023	3.5	criticalItem	n/a	n/a	10746	1	7	46	99	1	n/a	criticalTrue
398.023	3.5	genericItem	n/a	n/a	10747	1	7	47	100	1	n/a	n/a
402.024	3.5	genericItem	n/a	n/a	10748	1	7	48	101	1	n/a	n/a
406.024	3.5	criticalItem	n/a	n/a	10749	1	7	49	102	1	n/a	criticalFalse
410.024	3.5	controlItem	n/a	n/a	10750	1	7	50	103	1	n/a	controlFoil2
414.023	n/a	n/a	n/a	n/a	90700	9	7	0	104	1	n/a	n/a
418.023	n/a	n/a	n/a	n/a	90000	5	0	0	105	1	n/a	n/a
