onset	duration	trial_type	response	response_time	stim_id	stim_events	stim_slides	trial_id	run_id	stim_type	response_type
2.00542	n/a	n/a	n/a	n/a	81000	10	0	149	2	8	n/a
12.0051	3.5	controlItem	n/a	n/a	11049	10	49	150	2	1	n/a
15.4892	3.0	controlItem	n/a	n/a	51049	10	49	151	2	0	n/a
18.4888	3.0	controlItem	True	0.394	51049	10	49	152	2	5	controlTrue
22.0036	3.5	criticalItem	n/a	n/a	11045	10	45	153	2	1	n/a
25.4872	3.0	criticalItem	n/a	n/a	31045	10	45	154	2	0	n/a
28.4869	3.0	criticalItem	Foil	0.315	31045	10	45	155	2	3	criticalFoil
32.003	3.5	controlItem	n/a	n/a	11028	10	28	156	2	1	n/a
35.4856	3.0	controlItem	n/a	n/a	61028	10	28	157	2	0	n/a
38.4859	3.0	controlItem	True	0.342	61028	10	28	158	2	6	controlTrue
42.0017	3.5	controlItem	n/a	n/a	11031	10	31	159	2	1	n/a
45.4861	3.0	controlItem	n/a	n/a	61031	10	31	160	2	0	n/a
48.4849	3.0	controlItem	Foil2	0.359	61031	10	31	161	2	6	controlFoil2
52.0002	3.5	controlItem	n/a	n/a	11040	10	40	162	2	1	n/a
55.4842	3.0	controlItem	n/a	n/a	31040	10	40	163	2	0	n/a
58.4849	3.0	controlItem	True	0.323	31040	10	40	164	2	3	controlTrue
61.9993	3.5	criticalItem	n/a	n/a	11020	10	20	165	2	1	n/a
65.4829	3.0	criticalItem	n/a	n/a	31020	10	20	166	2	0	n/a
68.4829	3.0	criticalItem	False	0.537	31020	10	20	167	2	3	criticalFalse
72.0155	3.5	criticalItem	n/a	n/a	11026	10	26	168	2	1	n/a
75.4989	3.0	criticalItem	n/a	n/a	31026	10	26	169	2	0	n/a
78.4986	3.0	criticalItem	True	0.437	31026	10	26	170	2	3	criticalTrue
82.0141	3.5	criticalItem	n/a	n/a	11015	10	15	171	2	1	n/a
85.4987	3.0	criticalItem	n/a	n/a	61015	10	15	172	2	0	n/a
88.4984	3.0	criticalItem	True	0.303	61015	10	15	173	2	6	criticalTrue
92.0147	3.5	controlItem	n/a	n/a	11038	10	38	174	2	1	n/a
95.4974	3.0	controlItem	n/a	n/a	61038	10	38	175	2	0	n/a
98.4963	3.0	controlItem	Foil2	0.282	61038	10	38	176	2	6	controlFoil2
102.013	3.5	criticalItem	n/a	n/a	11035	10	35	177	2	1	n/a
105.497	3.0	criticalItem	n/a	n/a	31035	10	35	178	2	0	n/a
108.495	3.0	criticalItem	False	0.269	31035	10	35	179	2	3	criticalFalse
112.013	3.5	criticalItem	n/a	n/a	11010	10	10	180	2	1	n/a
115.495	3.0	criticalItem	n/a	n/a	31010	10	10	181	2	0	n/a
118.495	3.0	criticalItem	True	0.282	31010	10	10	182	2	3	criticalTrue
122.011	3.5	criticalItem	n/a	n/a	11003	10	3	183	2	1	n/a
125.493	3.0	criticalItem	n/a	n/a	61003	10	3	184	2	0	n/a
128.495	3.0	criticalItem	False	0.27	61003	10	3	185	2	6	criticalFalse
132.01	3.5	criticalItem	n/a	n/a	11033	10	33	186	2	1	n/a
135.492	3.0	criticalItem	n/a	n/a	31033	10	33	187	2	0	n/a
138.493	3.0	criticalItem	Foil	0.666	31033	10	33	188	2	3	criticalFoil
142.008	3.5	controlItem	n/a	n/a	11021	10	21	189	2	1	n/a
145.493	3.0	controlItem	ForbiddenKey	2.436	61021	10	21	190	2	0	n/a
148.491	3.0	controlItem	Foil2	0.393	61021	10	21	191	2	6	controlFoil2
152.007	3.5	controlItem	n/a	n/a	11017	10	17	192	2	1	n/a
155.491	3.0	controlItem	ForbiddenKey	2.448	61017	10	17	193	2	0	n/a
158.491	3.0	controlItem	True	0.38	61017	10	17	194	2	6	controlTrue
162.006	3.5	criticalItem	n/a	n/a	11008	10	8	195	2	1	n/a
165.489	3.0	criticalItem	n/a	n/a	21008	10	8	196	2	0	n/a
168.49	3.0	criticalItem	True	0.665	21008	10	8	197	2	2	criticalTrue
172.005	3.5	controlItem	n/a	n/a	11039	10	39	198	2	1	n/a
175.489	3.0	controlItem	n/a	n/a	61039	10	39	199	2	0	n/a
178.489	3.0	controlItem	True	0.571	61039	10	39	200	2	6	controlTrue
182.004	3.5	criticalItem	n/a	n/a	11023	10	23	201	2	1	n/a
185.489	3.0	criticalItem	n/a	n/a	61023	10	23	202	2	0	n/a
188.488	3.0	criticalItem	True	0.625	61023	10	23	203	2	6	criticalTrue
192.005	3.5	controlItem	n/a	n/a	11029	10	29	204	2	1	n/a
195.487	3.0	controlItem	n/a	n/a	21029	10	29	205	2	0	n/a
198.486	3.0	controlItem	True	0.487	21029	10	29	206	2	2	controlTrue
202.004	3.5	controlItem	n/a	n/a	11037	10	37	207	2	1	n/a
205.486	3.0	controlItem	n/a	n/a	51037	10	37	208	2	0	n/a
208.485	3.0	controlItem	True	0.499	51037	10	37	209	2	5	controlTrue
212.001	3.5	criticalItem	n/a	n/a	11018	10	18	210	2	1	n/a
215.484	3.0	criticalItem	n/a	n/a	31018	10	18	211	2	0	n/a
218.484	3.0	criticalItem	True	0.392	31018	10	18	212	2	3	criticalTrue
222.001	3.5	criticalItem	n/a	n/a	11005	10	5	213	2	1	n/a
225.483	3.0	criticalItem	n/a	n/a	51005	10	5	214	2	0	n/a
228.483	3.0	criticalItem	False	0.679	51005	10	5	215	2	5	criticalFalse
231.999	3.5	controlItem	n/a	n/a	11019	10	19	216	2	1	n/a
235.483	3.0	controlItem	n/a	n/a	61019	10	19	217	2	0	n/a
238.482	3.0	controlItem	True	0.336	61019	10	19	218	2	6	controlTrue
242.015	3.5	controlItem	n/a	n/a	11046	10	46	219	2	1	n/a
245.498	3.0	controlItem	n/a	n/a	51046	10	46	220	2	0	n/a
248.498	3.0	controlItem	True	0.36	51046	10	46	221	2	5	controlTrue
252.014	n/a	n/a	n/a	n/a	91000	10	0	222	2	9	n/a
256.013	n/a	n/a	n/a	n/a	80500	5	0	223	2	8	n/a
266.013	3.5	controlItem	n/a	n/a	10517	5	17	224	2	1	n/a
269.496	3.0	controlItem	n/a	n/a	70517	5	17	225	2	0	n/a
272.495	3.0	controlItem	Foil1	0.361	70517	5	17	226	2	7	controlFoil1
276.011	3.5	criticalItem	n/a	n/a	10521	5	21	227	2	1	n/a
279.494	3.0	criticalItem	n/a	n/a	20521	5	21	228	2	0	n/a
282.494	3.0	criticalItem	False	0.566	20521	5	21	229	2	2	criticalFalse
286.01	3.5	controlItem	n/a	n/a	10549	5	49	230	2	1	n/a
289.495	3.0	controlItem	n/a	n/a	50549	5	49	231	2	0	n/a
292.493	3.0	controlItem	True	0.546	50549	5	49	232	2	5	controlTrue
296.009	3.5	controlItem	n/a	n/a	10532	5	32	233	2	1	n/a
299.492	3.0	controlItem	n/a	n/a	20532	5	32	234	2	0	n/a
302.493	3.0	controlItem	True	0.556	20532	5	32	235	2	2	controlTrue
306.008	3.5	controlItem	n/a	n/a	10542	5	42	236	2	1	n/a
309.492	3.0	controlItem	n/a	n/a	70542	5	42	237	2	0	n/a
312.491	3.0	controlItem	True	0.319	70542	5	42	238	2	7	controlTrue
316.007	3.5	criticalItem	n/a	n/a	10519	5	19	239	2	1	n/a
319.491	3.0	criticalItem	n/a	n/a	30519	5	19	240	2	0	n/a
322.49	3.0	criticalItem	False	0.416	30519	5	19	241	2	3	criticalFalse
326.006	3.5	controlItem	n/a	n/a	10527	5	27	242	2	1	n/a
329.49	3.0	controlItem	n/a	n/a	70527	5	27	243	2	0	n/a
332.489	3.0	controlItem	True	0.447	70527	5	27	244	2	7	controlTrue
336.005	3.5	controlItem	n/a	n/a	10518	5	18	245	2	1	n/a
339.49	3.0	controlItem	n/a	n/a	20518	5	18	246	2	0	n/a
342.488	3.0	controlItem	True	0.316	20518	5	18	247	2	2	controlTrue
346.006	3.5	controlItem	n/a	n/a	10524	5	24	248	2	1	n/a
349.487	3.0	controlItem	n/a	n/a	20524	5	24	249	2	0	n/a
352.488	3.0	controlItem	True	0.378	20524	5	24	250	2	2	controlTrue
356.003	3.5	criticalItem	n/a	n/a	10531	5	31	251	2	1	n/a
359.488	3.0	criticalItem	n/a	n/a	30531	5	31	252	2	0	n/a
362.487	3.0	criticalItem	True	0.348	30531	5	31	253	2	3	criticalTrue
366.002	3.5	criticalItem	n/a	n/a	10516	5	16	254	2	1	n/a
369.486	3.0	criticalItem	n/a	n/a	40516	5	16	255	2	0	n/a
372.485	3.0	criticalItem	True	0.464	40516	5	16	256	2	4	criticalTrue
376.002	3.5	controlItem	n/a	n/a	10525	5	25	257	2	1	n/a
379.486	3.0	controlItem	n/a	n/a	50525	5	25	258	2	0	n/a
382.485	3.0	controlItem	True	0.489	50525	5	25	259	2	5	controlTrue
386	3.5	controlItem	n/a	n/a	10514	5	14	260	2	1	n/a
389.485	3.0	controlItem	n/a	n/a	40514	5	14	261	2	0	n/a
392.483	3.0	controlItem	True	0.366	40514	5	14	262	2	4	controlTrue
395.999	3.5	criticalItem	n/a	n/a	10526	5	26	263	2	1	n/a
399.482	3.0	criticalItem	n/a	n/a	60526	5	26	264	2	0	n/a
402.482	3.0	criticalItem	False	0.443	60526	5	26	265	2	6	criticalFalse
406	3.5	criticalItem	n/a	n/a	10505	5	5	266	2	1	n/a
409.483	3.0	criticalItem	n/a	n/a	40505	5	5	267	2	0	n/a
412.481	3.0	criticalItem	False	0.339	40505	5	5	268	2	4	criticalFalse
416.014	3.5	criticalItem	n/a	n/a	10541	5	41	269	2	1	n/a
419.497	3.0	criticalItem	n/a	n/a	60541	5	41	270	2	0	n/a
422.499	3.0	criticalItem	True	0.805	60541	5	41	271	2	6	criticalTrue
426.013	3.5	criticalItem	n/a	n/a	10523	5	23	272	2	1	n/a
429.496	3.0	criticalItem	n/a	n/a	20523	5	23	273	2	0	n/a
432.496	3.0	criticalItem	False	0.375	20523	5	23	274	2	2	criticalFalse
436.012	3.5	controlItem	n/a	n/a	10515	5	15	275	2	1	n/a
439.496	3.0	controlItem	n/a	n/a	70515	5	15	276	2	0	n/a
442.495	3.0	controlItem	True	0.354	70515	5	15	277	2	7	controlTrue
446.011	3.5	criticalItem	n/a	n/a	10539	5	39	278	2	1	n/a
449.494	3.0	criticalItem	n/a	n/a	60539	5	39	279	2	0	n/a
452.494	3.0	criticalItem	Foil	0.373	60539	5	39	280	2	6	criticalFoil
456.011	3.5	controlItem	n/a	n/a	10546	5	46	281	2	1	n/a
459.494	3.0	controlItem	n/a	n/a	70546	5	46	282	2	0	n/a
462.493	3.0	controlItem	True	0.356	70546	5	46	283	2	7	controlTrue
466.009	3.5	criticalItem	n/a	n/a	10550	5	50	284	2	1	n/a
469.492	3.0	criticalItem	n/a	n/a	20550	5	50	285	2	0	n/a
472.492	3.0	criticalItem	False	0.307	20550	5	50	286	2	2	criticalFalse
476.009	3.5	criticalItem	n/a	n/a	10503	5	3	287	2	1	n/a
479.492	3.0	criticalItem	n/a	n/a	60503	5	3	288	2	0	n/a
482.49	3.0	criticalItem	True	0.315	60503	5	3	289	2	6	criticalTrue
486.007	3.5	controlItem	n/a	n/a	10522	5	22	290	2	1	n/a
489.49	3.0	controlItem	n/a	n/a	20522	5	22	291	2	0	n/a
492.49	3.0	controlItem	Foil1	0.394	20522	5	22	292	2	2	controlFoil1
496.005	3.5	criticalItem	n/a	n/a	10547	5	47	293	2	1	n/a
499.489	3.0	criticalItem	n/a	n/a	60547	5	47	294	2	0	n/a
502.49	3.0	criticalItem	True	0.338	60547	5	47	295	2	6	criticalTrue
506.004	n/a	n/a	n/a	n/a	90500	5	0	296	2	9	n/a
