onset	duration	trial_type	response	response_time	stim_id	stim_version	stim_events	stim_slides	trial_id	run_id	stim_redcross	subsequent_response_type
2.0308	n/a	n/a	n/a	n/a	80100	8	1	0	316	4	n/a	n/a
6.0317	3.5	genericItem	n/a	n/a	10101	1	1	1	317	4	n/a	n/a
10.0313	3.5	genericItem	n/a	n/a	10102	1	1	2	318	4	n/a	n/a
14.0315	3.5	genericItem	n/a	n/a	10103	1	1	3	319	4	n/a	n/a
18.0318	3.5	controlItem	n/a	n/a	10104	1	1	4	320	4	n/a	controlTrue
22.0316	3.5	genericItem	n/a	n/a	10105	1	1	5	321	4	n/a	n/a
26.0309	3.5	genericItem	1	0.245	10106	1	1	6	322	4	1	n/a
30.0314	3.5	controlItem	n/a	n/a	10107	1	1	7	323	4	n/a	controlTrue
34.0316	3.5	genericItem	n/a	n/a	10108	1	1	8	324	4	n/a	n/a
38.0316	3.5	genericItem	n/a	n/a	10109	1	1	9	325	4	n/a	n/a
42.0295	3.5	criticalItem	n/a	n/a	20110	2	1	10	326	4	n/a	criticalTrue
46.0318	3.5	genericItem	n/a	n/a	10111	1	1	11	327	4	n/a	n/a
50.0305	3.5	criticalItem	n/a	n/a	20112	2	1	12	328	4	n/a	criticalTrue
54.0304	3.5	genericItem	n/a	n/a	10113	1	1	13	329	4	n/a	n/a
58.0304	3.5	criticalItem	n/a	n/a	20114	2	1	14	330	4	n/a	criticalTrue
62.03	3.5	genericItem	n/a	n/a	10115	1	1	15	331	4	n/a	n/a
66.0317	3.5	controlItem	n/a	n/a	10116	1	1	16	332	4	n/a	controlFoil2
70.0286	3.5	criticalItem	n/a	n/a	20117	2	1	17	333	4	n/a	criticalFalse
74.0316	3.5	controlItem	n/a	n/a	10118	1	1	18	334	4	n/a	controlTrue
78.0313	3.5	criticalItem	n/a	n/a	20119	2	1	19	335	4	n/a	criticalTrue
82.0308	3.5	genericItem	1	0.207	10120	1	1	20	336	4	1	n/a
86.0312	3.5	controlItem	n/a	n/a	10121	1	1	21	337	4	n/a	controlTrue
90.032	3.5	criticalItem	n/a	n/a	20122	2	1	22	338	4	n/a	criticalFalse
94.031	3.5	controlItem	n/a	n/a	10123	1	1	23	339	4	n/a	controlTrue
98.0317	3.5	controlItem	n/a	n/a	10124	1	1	24	340	4	n/a	controlFoil1
102.03	3.5	controlItem	n/a	n/a	10125	1	1	25	341	4	n/a	controlFoil2
106.03	3.5	criticalItem	n/a	n/a	20126	2	1	26	342	4	n/a	criticalTrue
110.032	3.5	genericItem	n/a	n/a	10127	1	1	27	343	4	n/a	n/a
114.029	3.5	criticalItem	n/a	n/a	20128	2	1	28	344	4	n/a	criticalTrue
118.029	3.5	genericItem	n/a	n/a	10129	1	1	29	345	4	n/a	n/a
122.031	3.5	genericItem	1	0.038	10130	1	1	30	346	4	1	n/a
126.031	3.5	criticalItem	n/a	n/a	20131	2	1	31	347	4	n/a	criticalFoil
130.03	3.5	controlItem	n/a	n/a	10132	1	1	32	348	4	n/a	controlTrue
134.031	3.5	genericItem	n/a	n/a	10133	1	1	33	349	4	n/a	n/a
138.031	3.5	genericItem	n/a	n/a	10134	1	1	34	350	4	n/a	n/a
142.034	3.5	genericItem	1	0.051	10135	1	1	35	351	4	1	n/a
146.032	3.5	criticalItem	n/a	n/a	20136	2	1	36	352	4	n/a	criticalFoil
150.031	3.5	genericItem	n/a	n/a	10137	1	1	37	353	4	n/a	n/a
154.031	3.5	genericItem	n/a	n/a	10138	1	1	38	354	4	n/a	n/a
158.032	3.5	genericItem	n/a	n/a	10139	1	1	39	355	4	n/a	n/a
162.03	3.5	controlItem	n/a	n/a	10140	1	1	40	356	4	n/a	controlTrue
166.028	3.5	criticalItem	n/a	n/a	20141	2	1	41	357	4	n/a	criticalFalse
170.029	3.5	genericItem	n/a	n/a	10142	1	1	42	358	4	n/a	n/a
174.028	3.5	genericItem	n/a	n/a	10143	1	1	43	359	4	n/a	n/a
178.03	3.5	genericItem	n/a	n/a	10144	1	1	44	360	4	n/a	n/a
182.029	3.5	genericItem	n/a	n/a	10145	1	1	45	361	4	n/a	n/a
186.03	3.5	controlItem	n/a	n/a	10146	1	1	46	362	4	n/a	controlFoil2
190.031	3.5	genericItem	n/a	n/a	10147	1	1	47	363	4	n/a	n/a
194.031	3.5	genericItem	n/a	n/a	10148	1	1	48	364	4	n/a	n/a
198.03	3.5	controlItem	n/a	n/a	10149	1	1	49	365	4	n/a	controlTrue
202.031	3.5	criticalItem	n/a	n/a	20150	2	1	50	366	4	n/a	criticalTrue
206.025	n/a	n/a	n/a	n/a	90100	9	1	0	367	4	n/a	n/a
210.023	n/a	n/a	n/a	n/a	80500	8	5	0	368	4	n/a	n/a
214.026	3.5	genericItem	n/a	n/a	10501	1	5	1	369	4	n/a	n/a
218.027	3.5	genericItem	1	0.145	10502	1	5	2	370	4	1	n/a
222.028	3.5	criticalItem	n/a	n/a	20503	2	5	3	371	4	n/a	criticalFoil
226.027	3.5	genericItem	n/a	n/a	10504	1	5	4	372	4	n/a	n/a
230.026	3.5	criticalItem	n/a	n/a	20505	2	5	5	373	4	n/a	criticalFalse
234.028	3.5	genericItem	n/a	n/a	10506	1	5	6	374	4	n/a	n/a
238.028	3.5	genericItem	n/a	n/a	10507	1	5	7	375	4	n/a	n/a
242.028	3.5	genericItem	n/a	n/a	10508	1	5	8	376	4	n/a	n/a
246.026	3.5	genericItem	n/a	n/a	10509	1	5	9	377	4	n/a	n/a
250.027	3.5	genericItem	n/a	n/a	10510	1	5	10	378	4	n/a	n/a
254.027	3.5	genericItem	n/a	n/a	10511	1	5	11	379	4	n/a	n/a
258.027	3.5	genericItem	n/a	n/a	10512	1	5	12	380	4	n/a	n/a
262.027	3.5	genericItem	n/a	n/a	10513	1	5	13	381	4	n/a	n/a
266.027	3.5	controlItem	n/a	n/a	10514	1	5	14	382	4	n/a	controlFoil2
270.027	3.5	controlItem	n/a	n/a	10515	1	5	15	383	4	n/a	controlFoil1
274.027	3.5	criticalItem	n/a	n/a	20516	2	5	16	384	4	n/a	criticalFalse
278.027	3.5	controlItem	n/a	n/a	10517	1	5	17	385	4	n/a	controlFoil1
282.027	3.5	controlItem	n/a	n/a	10518	1	5	18	386	4	n/a	controlTrue
286.028	3.5	criticalItem	n/a	n/a	20519	2	5	19	387	4	n/a	criticalFalse
290.028	3.5	genericItem	1	0.261	10520	1	5	20	388	4	1	n/a
294.027	3.5	criticalItem	n/a	n/a	20521	2	5	21	389	4	n/a	criticalFalse
298.027	3.5	controlItem	n/a	n/a	10522	1	5	22	390	4	n/a	controlFoil2
302.027	3.5	criticalItem	n/a	n/a	20523	2	5	23	391	4	n/a	criticalFalse
306.029	3.5	controlItem	n/a	n/a	10524	1	5	24	392	4	n/a	controlTrue
310.028	3.5	controlItem	n/a	n/a	10525	1	5	25	393	4	n/a	controlFoil2
314.028	3.5	criticalItem	n/a	n/a	20526	2	5	26	394	4	n/a	criticalTrue
318.027	3.5	controlItem	n/a	n/a	10527	1	5	27	395	4	n/a	controlFoil1
322.026	3.5	genericItem	n/a	n/a	10528	1	5	28	396	4	n/a	n/a
326.027	3.5	genericItem	n/a	n/a	10529	1	5	29	397	4	n/a	n/a
330.027	3.5	genericItem	n/a	n/a	10530	1	5	30	398	4	n/a	n/a
334.026	3.5	criticalItem	n/a	n/a	20531	2	5	31	399	4	n/a	criticalFalse
338.025	3.5	controlItem	n/a	n/a	10532	1	5	32	400	4	n/a	controlTrue
342.028	3.5	genericItem	n/a	n/a	10533	1	5	33	401	4	n/a	n/a
346.026	3.5	genericItem	n/a	n/a	10534	1	5	34	402	4	n/a	n/a
350.027	3.5	genericItem	n/a	n/a	10535	1	5	35	403	4	n/a	n/a
354.027	3.5	genericItem	n/a	n/a	10536	1	5	36	404	4	n/a	n/a
358.027	3.5	genericItem	n/a	n/a	10537	1	5	37	405	4	n/a	n/a
362.027	3.5	genericItem	n/a	n/a	10538	1	5	38	406	4	n/a	n/a
366.027	3.5	criticalItem	n/a	n/a	20539	2	5	39	407	4	n/a	criticalFalse
370.027	3.5	genericItem	n/a	n/a	10540	1	5	40	408	4	n/a	n/a
374.027	3.5	criticalItem	n/a	n/a	20541	2	5	41	409	4	n/a	criticalTrue
378.027	3.5	controlItem	n/a	n/a	10542	1	5	42	410	4	n/a	controlFoil1
382.027	3.5	genericItem	n/a	n/a	10543	1	5	43	411	4	n/a	n/a
386.025	3.5	genericItem	n/a	n/a	10544	1	5	44	412	4	n/a	n/a
390.029	3.5	genericItem	n/a	n/a	10545	1	5	45	413	4	n/a	n/a
394.027	3.5	controlItem	n/a	n/a	10546	1	5	46	414	4	n/a	controlFoil1
398.026	3.5	criticalItem	n/a	n/a	20547	2	5	47	415	4	n/a	criticalTrue
402.027	3.5	genericItem	n/a	n/a	10548	1	5	48	416	4	n/a	n/a
406.028	3.5	controlItem	n/a	n/a	10549	1	5	49	417	4	n/a	controlTrue
410.026	3.5	criticalItem	n/a	n/a	20550	2	5	50	418	4	n/a	criticalFalse
414.024	n/a	n/a	n/a	n/a	90500	9	5	0	419	4	n/a	n/a
418.024	n/a	n/a	n/a	n/a	90000	9	0	0	420	4	n/a	n/a
