onset	duration	trial_type	response	response_time	stim_id	stim_events	stim_slides	trial_id	run_id	stim_type	response_type
2.00926	n/a	n/a	n/a	n/a	80100	1	0	445	4	8	n/a
12.0095	3.5	controlItem	n/a	n/a	10124	1	24	446	4	1	n/a
15.4917	3.0	controlItem	n/a	n/a	60124	1	24	447	4	0	n/a
18.4911	3.0	controlItem	Foil1	0.339	60124	1	24	448	4	6	controlFoil1
22.0078	3.5	criticalItem	n/a	n/a	10136	1	36	449	4	1	n/a
25.4905	3.0	criticalItem	n/a	n/a	40136	1	36	450	4	0	n/a
28.4916	3.0	criticalItem	False	0.381	40136	1	36	451	4	4	criticalFalse
32.0065	3.5	criticalItem	n/a	n/a	10117	1	17	452	4	1	n/a
35.4904	3.0	criticalItem	n/a	n/a	60117	1	17	453	4	0	n/a
38.4895	3.0	criticalItem	True	0.281	60117	1	17	454	4	6	criticalTrue
42.006	3.5	controlItem	n/a	n/a	10116	1	16	455	4	1	n/a
45.489	3.0	controlItem	n/a	n/a	20116	1	16	456	4	0	n/a
48.4888	3.0	controlItem	Foil1	0.306	20116	1	16	457	4	2	controlFoil1
52.0053	3.5	controlItem	n/a	n/a	10121	1	21	458	4	1	n/a
55.4876	3.0	controlItem	n/a	n/a	30121	1	21	459	4	0	n/a
58.4875	3.0	controlItem	True	0.287	30121	1	21	460	4	3	controlTrue
62.0036	3.5	controlItem	n/a	n/a	10104	1	4	461	4	1	n/a
65.4877	3.0	controlItem	n/a	n/a	20104	1	4	462	4	0	n/a
68.4865	3.0	controlItem	Foil1	0.421	20104	1	4	463	4	2	controlFoil1
72.0027	3.5	criticalItem	n/a	n/a	10128	1	28	464	4	1	n/a
75.4867	3.0	criticalItem	n/a	n/a	60128	1	28	465	4	0	n/a
78.4857	3.0	criticalItem	False	0.287	60128	1	28	466	4	6	criticalFalse
82.001	3.5	criticalItem	n/a	n/a	10122	1	22	467	4	1	n/a
85.4847	3.0	criticalItem	n/a	n/a	40122	1	22	468	4	0	n/a
88.4837	3.0	criticalItem	False	0.347	40122	1	22	469	4	4	criticalFalse
92	3.5	criticalItem	n/a	n/a	10110	1	10	470	4	1	n/a
95.4841	3.0	criticalItem	n/a	n/a	60110	1	10	471	4	0	n/a
98.4839	3.0	criticalItem	True	0.359	60110	1	10	472	4	6	criticalTrue
102	3.5	criticalItem	n/a	n/a	10141	1	41	473	4	1	n/a
105.484	3.0	criticalItem	n/a	n/a	60141	1	41	474	4	0	n/a
108.483	3.0	criticalItem	True	0.408	60141	1	41	475	4	6	criticalTrue
111.999	3.5	criticalItem	n/a	n/a	10112	1	12	476	4	1	n/a
115.481	3.0	criticalItem	n/a	n/a	30112	1	12	477	4	0	n/a
118.481	3.0	criticalItem	True	0.783	30112	1	12	478	4	3	criticalTrue
122.015	3.5	controlItem	n/a	n/a	10140	1	40	479	4	1	n/a
125.497	3.0	controlItem	n/a	n/a	30140	1	40	480	4	0	n/a
128.497	3.0	controlItem	True	0.301	30140	1	40	481	4	3	controlTrue
132.014	3.5	controlItem	n/a	n/a	10107	1	7	482	4	1	n/a
135.496	3.0	controlItem	n/a	n/a	60107	1	7	483	4	0	n/a
138.496	3.0	controlItem	True	0.334	60107	1	7	484	4	6	controlTrue
142.012	3.5	criticalItem	n/a	n/a	10131	1	31	485	4	1	n/a
145.495	3.0	criticalItem	n/a	n/a	70131	1	31	486	4	0	n/a
148.495	3.0	criticalItem	False	0.368	70131	1	31	487	4	7	criticalFalse
152.011	3.5	criticalItem	n/a	n/a	10119	1	19	488	4	1	n/a
155.495	3.0	criticalItem	n/a	n/a	30119	1	19	489	4	0	n/a
158.494	3.0	criticalItem	False	0.304	30119	1	19	490	4	3	criticalFalse
162.01	3.5	criticalItem	n/a	n/a	10150	1	50	491	4	1	n/a
165.493	3.0	criticalItem	n/a	n/a	40150	1	50	492	4	0	n/a
168.494	3.0	criticalItem	True	0.307	40150	1	50	493	4	4	criticalTrue
172.01	3.5	controlItem	n/a	n/a	10146	1	46	494	4	1	n/a
175.493	3.0	controlItem	n/a	n/a	70146	1	46	495	4	0	n/a
178.492	3.0	controlItem	True	0.302	70146	1	46	496	4	7	controlTrue
182.009	3.5	criticalItem	n/a	n/a	10126	1	26	497	4	1	n/a
185.492	3.0	criticalItem	n/a	n/a	50126	1	26	498	4	0	n/a
188.491	3.0	criticalItem	True	0.315	50126	1	26	499	4	5	criticalTrue
192.008	3.5	criticalItem	n/a	n/a	10114	1	14	500	4	1	n/a
195.49	3.0	criticalItem	n/a	n/a	40114	1	14	501	4	0	n/a
198.491	3.0	criticalItem	False	0.34	40114	1	14	502	4	4	criticalFalse
202.006	3.5	controlItem	n/a	n/a	10123	1	23	503	4	1	n/a
205.489	3.0	controlItem	n/a	n/a	30123	1	23	504	4	0	n/a
208.488	3.0	controlItem	Foil1	0.349	30123	1	23	505	4	3	controlFoil1
212.006	3.5	controlItem	n/a	n/a	10132	1	32	506	4	1	n/a
215.488	3.0	controlItem	n/a	n/a	60132	1	32	507	4	0	n/a
218.489	3.0	controlItem	True	0.38	60132	1	32	508	4	6	controlTrue
222.005	3.5	controlItem	n/a	n/a	10118	1	18	509	4	1	n/a
225.488	3.0	controlItem	n/a	n/a	50118	1	18	510	4	0	n/a
228.487	3.0	controlItem	Foil1	0.388	50118	1	18	511	4	5	controlFoil1
232.003	3.5	controlItem	n/a	n/a	10125	1	25	512	4	1	n/a
235.486	3.0	controlItem	n/a	n/a	20125	1	25	513	4	0	n/a
238.486	3.0	controlItem	Foil1	0.365	20125	1	25	514	4	2	controlFoil1
242.003	3.5	controlItem	n/a	n/a	10149	1	49	515	4	1	n/a
245.485	3.0	controlItem	n/a	n/a	40149	1	49	516	4	0	n/a
248.485	3.0	controlItem	True	0.295	40149	1	49	517	4	4	controlTrue
252.001	n/a	n/a	n/a	n/a	90100	1	0	518	4	9	n/a
256	n/a	n/a	n/a	n/a	80400	4	0	519	4	8	n/a
266	3.5	criticalItem	n/a	n/a	10436	4	36	520	4	1	n/a
269.483	3.0	criticalItem	n/a	n/a	40436	4	36	521	4	0	n/a
272.483	3.0	criticalItem	False	0.37	40436	4	36	522	4	4	criticalFalse
276.015	3.5	criticalItem	n/a	n/a	10404	4	4	523	4	1	n/a
279.499	3.0	criticalItem	n/a	n/a	50404	4	4	524	4	0	n/a
282.498	3.0	criticalItem	True	0.347	50404	4	4	525	4	5	criticalTrue
286.014	3.5	criticalItem	n/a	n/a	10407	4	7	526	4	1	n/a
289.498	3.0	criticalItem	n/a	n/a	40407	4	7	527	4	0	n/a
292.497	3.0	criticalItem	True	0.328	40407	4	7	528	4	4	criticalTrue
296.014	3.5	controlItem	n/a	n/a	10444	4	44	529	4	1	n/a
299.497	3.0	controlItem	n/a	n/a	20444	4	44	530	4	0	n/a
302.496	3.0	controlItem	Foil2	0.5	20444	4	44	531	4	2	controlFoil2
306.012	3.5	controlItem	n/a	n/a	10446	4	46	532	4	1	n/a
309.495	3.0	controlItem	n/a	n/a	50446	4	46	533	4	0	n/a
312.496	3.0	controlItem	True	0.352	50446	4	46	534	4	5	controlTrue
316.013	3.5	controlItem	n/a	n/a	10409	4	9	535	4	1	n/a
319.495	3.0	controlItem	n/a	n/a	50409	4	9	536	4	0	n/a
322.495	3.0	controlItem	True	0.269	50409	4	9	537	4	5	controlTrue
326.011	3.5	controlItem	n/a	n/a	10442	4	42	538	4	1	n/a
329.494	3.0	controlItem	n/a	n/a	70442	4	42	539	4	0	n/a
332.493	3.0	controlItem	True	0.355	70442	4	42	540	4	7	controlTrue
336.009	3.5	criticalItem	n/a	n/a	10419	4	19	541	4	1	n/a
339.492	3.0	criticalItem	n/a	n/a	40419	4	19	542	4	0	n/a
342.491	3.0	criticalItem	False	0.42	40419	4	19	543	4	4	criticalFalse
346.008	3.5	controlItem	n/a	n/a	10443	4	43	544	4	1	n/a
349.491	3.0	controlItem	n/a	n/a	70443	4	43	545	4	0	n/a
352.491	3.0	controlItem	True	0.326	70443	4	43	546	4	7	controlTrue
356.008	3.5	criticalItem	n/a	n/a	10438	4	38	547	4	1	n/a
359.491	3.0	criticalItem	n/a	n/a	40438	4	38	548	4	0	n/a
362.49	3.0	criticalItem	True	0.307	40438	4	38	549	4	4	criticalTrue
366.007	3.5	criticalItem	n/a	n/a	10415	4	15	550	4	1	n/a
369.489	3.0	criticalItem	n/a	n/a	70415	4	15	551	4	0	n/a
372.49	3.0	criticalItem	True	0.306	70415	4	15	552	4	7	criticalTrue
376.006	3.5	controlItem	n/a	n/a	10422	4	22	553	4	1	n/a
379.489	3.0	controlItem	n/a	n/a	20422	4	22	554	4	0	n/a
382.488	3.0	controlItem	Foil1	0.789	20422	4	22	555	4	2	controlFoil1
386.004	3.5	criticalItem	n/a	n/a	10440	4	40	556	4	1	n/a
389.488	3.0	criticalItem	n/a	n/a	20440	4	40	557	4	0	n/a
392.488	3.0	criticalItem	True	0.492	20440	4	40	558	4	2	criticalTrue
396.004	3.5	controlItem	n/a	n/a	10425	4	25	559	4	1	n/a
399.487	3.0	controlItem	n/a	n/a	40425	4	25	560	4	0	n/a
402.487	3.0	controlItem	Foil1	0.407	40425	4	25	561	4	4	controlFoil1
406.001	3.5	criticalItem	n/a	n/a	10417	4	17	562	4	1	n/a
409.485	3.0	criticalItem	n/a	n/a	70417	4	17	563	4	0	n/a
412.484	3.0	criticalItem	False	0.398	70417	4	17	564	4	7	criticalFalse
416.001	3.5	controlItem	n/a	n/a	10430	4	30	565	4	1	n/a
419.486	3.0	controlItem	n/a	n/a	60430	4	30	566	4	0	n/a
422.485	3.0	controlItem	Foil2	0.364	60430	4	30	567	4	6	controlFoil2
426	3.5	criticalItem	n/a	n/a	10429	4	29	568	4	1	n/a
429.484	3.0	criticalItem	n/a	n/a	70429	4	29	569	4	0	n/a
432.483	3.0	criticalItem	False	0.282	70429	4	29	570	4	7	criticalFalse
436.016	3.5	criticalItem	n/a	n/a	10411	4	11	571	4	1	n/a
439.5	3.0	criticalItem	n/a	n/a	70411	4	11	572	4	0	n/a
442.499	3.0	criticalItem	False	0.314	70411	4	11	573	4	7	criticalFalse
446.001	3.5	criticalItem	n/a	n/a	10449	4	49	574	4	1	n/a
449.482	3.0	criticalItem	n/a	n/a	20449	4	49	575	4	0	n/a
452.481	3.0	criticalItem	False	0.415	20449	4	49	576	4	2	criticalFalse
456.014	3.5	controlItem	n/a	n/a	10412	4	12	577	4	1	n/a
459.497	3.0	controlItem	n/a	n/a	60412	4	12	578	4	0	n/a
462.498	3.0	controlItem	True	0.389	60412	4	12	579	4	6	controlTrue
466.013	3.5	criticalItem	n/a	n/a	10424	4	24	580	4	1	n/a
469.497	3.0	criticalItem	n/a	n/a	30424	4	24	581	4	0	n/a
472.496	3.0	criticalItem	True	0.532	30424	4	24	582	4	3	criticalTrue
476.012	3.5	controlItem	n/a	n/a	10450	4	50	583	4	1	n/a
479.495	3.0	controlItem	n/a	n/a	40450	4	50	584	4	0	n/a
482.495	3.0	controlItem	True	0.376	40450	4	50	585	4	4	controlTrue
486.01	3.5	controlItem	n/a	n/a	10416	4	16	586	4	1	n/a
489.494	3.0	controlItem	n/a	n/a	60416	4	16	587	4	0	n/a
492.494	3.0	controlItem	Foil1	0.416	60416	4	16	588	4	6	controlFoil1
496.011	3.5	controlItem	n/a	n/a	10448	4	48	589	4	1	n/a
499.494	3.0	controlItem	n/a	n/a	50448	4	48	590	4	0	n/a
502.493	3.0	controlItem	Foil1	0.496	50448	4	48	591	4	5	controlFoil1
506.008	n/a	n/a	n/a	n/a	90400	4	0	592	4	9	n/a
